ID,cue_image,Face_Set_Code,Face_Type_Code,cue_position_x,target_position_x,conguruence,orientation,trials.thisTrialN,Experiment_Trials_button.rt
37,70100,2,1,-2,2,0,0,0,0.4832913
37,131100,2,2,-2,2,0,0,1,0.4334959
37,153100,2,2,-2,-2,4,0,2,0.3833012
37,11100,2,2,2,2,4,0,3,0.4168029
37,173500,1,1,2,2,4,0,4,0.3501351
37,162100,2,1,2,-2,0,45,5,0.5500432
37,109100,2,1,-2,2,0,45,6,0.500138
37,101100,2,1,2,2,4,45,7,0.5501852
37,27100,2,2,2,2,4,0,8,0.6666934
37,9100,2,1,-2,-2,4,0,9,0.4000251
37,107100,2,2,2,-2,0,45,10,0.5005871
37,111100,2,1,-2,2,0,0,11,0.500011
37,81100,2,2,-2,-2,4,0,12,0.4333794
37,4100,2,2,2,2,4,45,13,0.5001256
37,62100,2,1,-2,2,0,45,14,0.4834115
37,87100,2,2,-2,2,0,45,15,0.5334093
37,30100,2,1,2,2,4,45,16,0.4666403
37,60100,2,1,-2,2,0,0,17,0.4666974
37,23100,2,2,-2,2,0,0,18,0.5167439
37,61100,2,2,-2,-2,4,0,19,0.5667934
37,100100,2,2,2,-2,0,45,20,0.5515813
37,107100,2,1,-2,-2,4,45,21,0.5500115
37,3100,2,1,2,2,4,0,22,0.4999368
37,68100,2,1,-2,2,0,0,23,0.5167895
37,117100,2,2,2,2,4,45,24,0.5667938
37,120100,2,1,2,-2,0,45,25,0.5861312
37,108100,2,2,-2,2,0,0,26,0.4666836
37,125500,1,1,-2,-2,4,45,27,0.516657
37,7100,2,1,-2,2,0,45,28,0.4666253
37,140500,1,1,-2,-2,4,45,29,0.683439
37,4100,2,1,-2,-2,4,45,30,0.4667935
37,69100,2,2,-2,2,0,45,31,0.5166857
37,5100,2,2,-2,-2,4,0,32,0.4666816
37,141100,2,2,2,2,4,45,33,0.5501208
37,21500,1,1,2,-2,0,45,34,0.5833626
37,136100,2,1,-2,-2,4,0,35,0.4834074
37,57100,2,1,-2,2,0,0,36,0.5166955
37,11100,2,1,-2,-2,4,45,37,0.4833151
37,142100,2,1,2,-2,0,45,38,0.4833511
37,172500,1,2,2,-2,0,0,39,0.4668112
37,52100,2,2,-2,-2,4,45,40,0.516789
37,69500,1,1,2,-2,0,0,41,0.5333522
37,68500,1,1,2,-2,0,0,42,0.4666954
37,93100,2,2,-2,2,0,45,43,0.500105
37,38100,2,2,2,-2,0,45,44,0.4688033
37,45100,2,2,-2,-2,4,0,45,0.5666225
37,143500,1,1,2,-2,0,0,46,0.4500921
37,117500,1,1,-2,2,0,0,47,0.5166193
37,134100,2,1,2,2,4,0,48,0.5000367
37,91100,2,2,2,-2,0,45,49,0.4667772
37,75100,2,1,-2,2,0,45,50,0.5168105
37,13100,2,2,-2,-2,4,0,51,0.5333153
37,56100,2,1,2,2,4,45,52,0.4833421
37,141500,1,1,2,2,4,0,53,0.500104
37,108500,1,1,2,-2,0,0,54,0.5000789
37,5100,2,2,-2,2,0,0,55,0.4000139
37,143100,2,2,2,2,4,45,56,0.5166816
37,107100,2,1,-2,2,0,0,57,0.5000881
37,20100,2,1,2,2,4,45,58,0.6000208
37,31100,2,1,-2,-2,4,0,59,0.4519292
37,120100,2,2,-2,-2,4,0,60,0.450041
37,136100,2,2,2,2,4,0,61,0.4167623
37,86100,2,1,-2,2,0,45,62,0.3667212
37,47100,2,1,-2,-2,4,45,63,0.5166798
37,3100,2,2,-2,2,0,0,64,0.5001185
37,41100,2,1,-2,2,0,0,65,0.5166859
37,61100,2,1,2,2,4,0,66,0.4834487
37,29500,1,1,2,2,4,0,67,0.4500292
37,91100,2,1,-2,2,0,45,68,0.4833454
37,130500,1,2,-2,2,0,45,69,0.5667139
37,134100,2,1,2,-2,0,0,70,0.5026134
37,31500,1,2,2,-2,0,0,71,0.7167977
37,57100,2,2,2,-2,0,0,72,0.4334708
37,92500,1,2,2,2,4,0,73,0.5166877
37,22100,2,2,2,2,4,45,74,0.5000968
37,5100,2,1,2,-2,0,45,75,0.5834219
37,152100,2,1,-2,2,0,0,76,0.550028
37,69500,1,2,-2,-2,4,45,77,0.5666774
37,41100,2,2,2,2,4,45,78,0.5667109
37,106100,2,1,2,-2,0,45,79,0.50265
37,26500,1,1,2,-2,0,0,80,0.5501686
37,20100,2,2,-2,2,0,0,81,0.4667944
37,35100,2,1,2,-2,0,0,82,0.3999165
37,38100,2,1,-2,-2,4,45,83,0.5167832
37,35100,2,2,-2,-2,4,45,84,0.4833587
37,123500,1,1,2,-2,0,45,85,0.4666481
37,31100,2,2,2,-2,0,0,86,0.4999836
37,56100,2,2,-2,-2,4,45,87,0.5333883
37,5100,2,1,2,2,4,45,88,0.48346
37,129100,2,1,-2,2,0,0,89,0.5166811
37,103500,1,1,2,2,4,45,90,0.5687858
37,96100,2,1,-2,-2,4,45,91,0.4678885
37,33100,2,1,-2,2,0,45,92,0.5000315
37,13100,2,1,2,2,4,45,93,0.483342
37,116100,2,2,-2,2,0,45,94,0.3999505
37,121500,1,1,2,-2,0,0,95,0.5172301
37,130500,1,2,-2,-2,4,45,96,0.5000984
37,125500,1,1,-2,2,0,0,97,0.4834665
37,31500,1,1,-2,2,0,0,98,0.5333527
37,131500,1,2,2,2,4,45,99,0.5501142
37,110100,2,1,2,2,4,45,100,0.4000389
37,1100,2,1,2,2,4,0,101,0.5333272
37,55100,2,1,-2,2,0,45,102,0.550052
37,84100,2,1,2,2,4,0,103,0.5166388
37,4500,1,2,-2,-2,4,45,104,0.5167308
37,121500,1,1,2,2,4,0,105,0.4862334
37,38100,2,1,-2,2,0,45,106,0.4666756
37,28100,2,2,-2,-2,4,45,107,0.5000415
37,158100,2,1,2,2,4,0,108,0.4667353
37,76100,2,2,-2,2,0,45,109,0.4168005
37,103500,1,2,-2,2,0,0,110,0.5334347
37,123500,1,1,2,2,4,0,111,0.3834478
37,65100,2,2,2,2,4,0,112,0.4834262
37,7100,2,1,-2,-2,4,0,113,0.5001131
37,101500,1,1,2,2,4,45,114,0.4500497
37,29500,1,1,2,-2,0,45,115,0.6000972
37,26500,1,2,-2,-2,4,45,116,0.5166349
37,98100,2,1,2,-2,0,45,117,0.5004083
37,61100,2,1,2,-2,0,45,118,0.5166855
37,26500,1,1,2,2,4,45,119,0.533391
37,125100,2,1,2,-2,0,45,120,0.5500038
37,117500,1,2,2,-2,0,0,121,0.4834164
37,122100,2,1,2,-2,0,0,122,0.4666381
37,158100,2,2,-2,-2,4,0,123,0.4667557
37,129100,2,2,2,2,4,0,124,0.5334601
37,128500,1,1,2,2,4,0,125,0.4667639
37,79100,2,1,2,-2,0,45,126,0.4833671
37,25100,2,1,-2,-2,4,45,127,0.5001443
37,134100,2,2,-2,-2,4,45,128,0.5167509
37,140500,1,1,-2,2,0,0,129,0.5167519
37,127100,2,1,2,2,4,45,130,0.5833663
37,37100,2,2,-2,2,0,0,131,0.4833295
37,141100,2,2,2,-2,0,45,132,0.4834606
37,95100,2,2,-2,-2,4,45,133,0.4999929
37,138100,2,1,2,-2,0,0,134,0.5167831
37,17100,2,1,2,2,4,45,135,0.5169237
37,45100,2,2,-2,2,0,0,136,0.5166654
37,138100,2,1,2,2,4,45,137,0.5000106
37,141500,1,1,2,-2,0,0,138,0.5501064
37,2100,2,1,-2,2,0,0,139,0.6166651
37,25100,2,2,2,2,4,45,140,0.6167203
37,79100,2,1,2,2,4,0,141,0.4844921
37,100100,2,1,-2,-2,4,45,142,0.5835661
37,25100,2,2,2,-2,0,0,143,0.6001118
37,75100,2,1,-2,-2,4,45,144,0.6167941
37,172500,1,1,-2,2,0,45,145,0.6834498
37,94100,2,2,2,-2,0,0,146,0.583267
37,31100,2,2,2,2,4,0,147,0.5000727
37,4500,1,1,2,2,4,45,148,0.5000082
37,13100,2,2,-2,2,0,45,149,0.5166036
37,93100,2,1,2,-2,0,45,150,0.6167325
37,132500,1,2,-2,-2,4,45,151,0.4666824
37,129100,2,1,-2,-2,4,45,152,0.5505468
37,18100,2,2,2,2,4,0,153,0.5001312
37,22500,1,1,-2,2,0,45,154,0.5501361
37,22100,2,1,-2,2,0,0,155,0.5833783
37,17100,2,2,-2,2,0,0,156,0.5334263
37,129100,2,2,2,-2,0,0,157,0.6333308
37,63500,1,1,-2,2,0,45,158,0.5667443
37,57100,2,2,2,2,4,0,159,0.6167309
37,128500,1,2,-2,-2,4,0,160,0.5667995
37,12500,1,2,2,2,4,45,161,0.4833173
37,27100,2,1,-2,-2,4,45,162,0.6674462
37,69500,1,1,2,2,4,0,163,0.5166692
37,36100,2,1,-2,2,0,45,164,0.8501252
37,122100,2,2,-2,2,0,0,165,0.5001289
37,68500,1,1,2,2,4,45,166,0.5169977
37,33100,2,2,2,2,4,45,167,0.4833579
37,173500,1,2,-2,-2,4,0,168,0.6333581
37,72100,2,1,-2,-2,4,0,169,0.4667836
37,16100,2,1,-2,-2,4,45,170,0.6499637
37,18100,2,1,-2,2,0,0,171,0.5501232
37,62100,2,2,2,2,4,0,172,0.566635
37,47100,2,2,2,-2,0,0,173,0.5836314
37,26100,2,2,-2,2,0,0,174,0.5515748
37,134100,2,2,-2,2,0,45,175,0.5179123
37,111100,2,2,2,-2,0,45,176,0.5167995
37,31500,1,2,2,2,4,45,177,0.4500989
37,40100,2,1,2,2,4,45,178,0.6333586
37,106100,2,2,-2,2,0,0,179,0.5001308
37,153100,2,2,-2,2,0,0,180,0.4519178
37,40100,2,1,2,-2,0,0,181,0.5001595
37,28100,2,1,2,-2,0,45,182,0.5501272
37,40100,2,2,-2,2,0,0,183,0.6833634
37,55100,2,2,2,-2,0,0,184,0.5834498
37,153100,2,1,2,2,4,0,185,0.5000224
37,26100,2,1,2,-2,0,0,186,0.50003
37,162100,2,1,2,2,4,0,187,0.4667999
37,125100,2,2,-2,-2,4,45,188,0.5499709
37,81100,2,1,2,-2,0,0,189,0.5333702
37,132500,1,1,2,2,4,0,190,0.6167435
37,29100,2,1,-2,2,0,45,191,0.5499706
37,29500,1,2,-2,2,0,0,192,0.4833367
37,125100,2,2,-2,2,0,45,193,0.7333054
37,84100,2,2,-2,2,0,45,194,0.4833595
37,172500,1,2,2,2,4,0,195,0.5166944
37,115100,2,1,-2,-2,4,45,196,0.650013
37,132100,2,2,2,-2,0,45,197,0.6166926
37,138100,2,2,-2,2,0,0,198,0.5333356
37,104500,1,1,-2,-2,4,0,199,0.5166524
37,113100,2,1,2,2,4,45,200,0.5666329
37,83100,2,1,-2,-2,4,45,201,0.6000293
37,143500,1,2,-2,-2,4,45,202,0.3833659
37,49100,2,2,2,-2,0,45,203,0.4166233
37,23100,2,1,2,2,4,45,204,0.4333492
37,76100,2,1,2,2,4,45,205,0.4166945
37,124100,2,1,-2,2,0,0,206,0.5667554
37,10100,2,2,-2,-2,4,45,207,0.4999955
37,94100,2,2,2,2,4,45,208,0.4668023
37,144100,2,1,2,2,4,0,209,0.6500986
37,84100,2,2,-2,-2,4,0,210,0.500147
37,117100,2,1,-2,-2,4,0,211,0.4834284
37,158100,2,2,-2,2,0,0,212,0.5833451
37,68500,1,2,-2,-2,4,45,213,0.5833325
37,32100,2,2,-2,2,0,45,214,0.4500175
37,77100,2,2,2,-2,0,0,215,0.6834076
37,130500,1,1,2,2,4,0,216,0.4834244
37,108100,2,2,-2,-2,4,0,217,0.4667104
37,110100,2,2,-2,2,0,0,218,0.5167368
37,33100,2,1,-2,-2,4,0,219,0.4340176
37,76100,2,2,-2,-2,4,0,220,0.4500414
37,77100,2,1,-2,2,0,45,221,0.5167798
37,41500,1,1,2,2,4,0,222,0.5666475
37,158100,2,1,2,-2,0,45,223,0.6666443
37,100100,2,2,2,2,4,0,224,0.600079
37,132500,1,1,2,-2,0,45,225,0.5667962
37,33100,2,2,2,-2,0,0,226,0.6666967
37,122100,2,2,-2,-2,4,45,227,0.6332981
37,72100,2,1,-2,2,0,45,228,0.6000206
37,68100,2,1,-2,-2,4,0,229,0.5000159
37,157100,2,2,2,2,4,0,230,0.4501325
37,86100,2,2,2,2,4,45,231,0.5166006
37,173500,1,1,2,-2,0,45,232,0.5333631
37,101500,1,2,-2,-2,4,45,233,0.5833141
37,93100,2,1,2,2,4,0,234,0.6667046
37,116100,2,2,-2,-2,4,0,235,0.7334216
37,63100,2,2,-2,2,0,45,236,0.5666888
37,22100,2,1,-2,-2,4,45,237,0.5501173
37,130500,1,1,2,-2,0,45,238,0.4500436
37,153100,2,1,2,-2,0,45,239,0.4334888
37,52100,2,1,2,2,4,0,240,0.5167975
37,36100,2,2,2,2,4,45,241,0.4500248
37,27100,2,1,-2,2,0,0,242,0.5167819
37,124100,2,2,2,2,4,0,243,0.5334592
37,11100,2,1,-2,2,0,0,244,0.5001195
37,41500,1,2,-2,-2,4,45,245,0.600015
37,106100,2,1,2,2,4,0,246,0.4834538
37,107100,2,2,2,2,4,45,247,0.4999733
37,103500,1,1,2,-2,0,45,248,0.5501343
37,43100,2,1,-2,2,0,45,249,0.5167895
37,120100,2,1,2,2,4,0,250,0.4834236
37,121100,2,1,-2,2,0,45,251,0.4834284
37,123500,1,2,-2,-2,4,45,252,0.6834234
37,98100,2,1,2,2,4,0,253,0.6834164
37,18500,1,1,2,2,4,45,254,0.4500168
37,131500,1,1,-2,-2,4,0,255,0.5504111
37,16100,2,2,2,2,4,45,256,0.5166626
37,26500,1,2,-2,2,0,0,257,0.5167492
37,69100,2,2,-2,-2,4,0,258,0.4508434
37,98100,2,2,-2,2,0,45,259,0.5666267
37,121500,1,2,-2,-2,4,0,260,0.533363
37,126100,2,1,-2,-2,4,0,261,0.534944
37,125500,1,2,2,-2,0,45,262,0.583452
37,109100,2,1,-2,-2,4,0,263,0.566804
37,138500,1,2,-2,-2,4,45,264,0.5834327
37,36100,2,1,-2,-2,4,45,265,0.5501235
37,73100,2,1,2,-2,0,0,266,0.549957
37,63100,2,1,2,-2,0,45,267,0.5499399
37,101100,2,2,-2,-2,4,0,268,0.483354
37,95100,2,1,2,-2,0,0,269,0.4682
37,26100,2,2,-2,-2,4,0,270,0.4501225
37,68100,2,2,2,2,4,45,271,0.4500249
37,144100,2,2,-2,2,0,45,272,0.4510403
37,141500,1,2,-2,-2,4,45,273,0.4833204
37,96100,2,2,2,2,4,0,274,0.4834605
37,161100,2,2,2,-2,0,0,275,0.6016623
37,105500,1,1,2,2,4,45,276,0.6666833
37,17100,2,2,-2,-2,4,0,277,0.483348
37,76100,2,1,2,-2,0,0,278,0.5667916
37,66100,2,1,2,2,4,0,279,0.51663
37,120100,2,2,-2,2,0,45,280,0.9333322
37,142100,2,1,2,2,4,45,281,0.4500464
37,98100,2,2,-2,-2,4,0,282,0.4500331
37,10100,2,2,-2,2,0,0,283,0.5166118
37,83100,2,2,2,2,4,0,284,0.4832785
37,12500,1,1,-2,2,0,45,285,0.5502281
37,36100,2,2,2,-2,0,0,286,0.6000224
37,161100,2,1,-2,2,0,0,287,0.6333443
37,143500,1,2,-2,2,0,45,288,0.6841872
37,83100,2,1,-2,2,0,45,289,0.5000212
37,71100,2,1,2,-2,0,45,290,0.4833074
37,92500,1,1,-2,-2,4,0,291,0.4999897
37,41500,1,1,2,-2,0,45,292,0.5334075
37,117100,2,2,2,-2,0,0,293,0.4833743
37,2100,2,2,2,2,4,0,294,0.4853036
37,69500,1,2,-2,2,0,0,295,0.4176271
37,115100,2,2,2,2,4,0,296,0.4666954
37,80100,2,2,2,2,4,45,297,0.4333427
37,18100,2,1,-2,-2,4,0,298,0.4834613
37,104500,1,2,2,-2,0,45,299,0.4843008
37,161100,2,2,2,2,4,45,300,0.4000298
37,48100,2,1,2,-2,0,45,301,0.4666088
37,87100,2,1,2,-2,0,45,302,0.4333958
37,22500,1,1,-2,-2,4,45,303,0.4339128
37,146100,2,1,-2,-2,4,45,304,0.4166767
37,79100,2,2,-2,-2,4,45,305,0.4833724
37,49100,2,1,-2,-2,4,0,306,0.5510749
37,35100,2,1,2,2,4,0,307,0.5167617
37,12500,1,1,-2,-2,4,45,308,0.5667961
37,131500,1,2,2,-2,0,45,309,0.4000305
37,7100,2,2,2,2,4,0,310,0.6664643
37,146100,2,2,2,2,4,0,311,0.5001185
37,42100,2,2,-2,2,0,0,312,0.4834336
37,21500,1,2,-2,-2,4,45,313,0.7833446
37,157100,2,2,2,-2,0,45,314,0.5166836
37,37100,2,1,2,-2,0,45,315,0.5168224
37,121500,1,2,-2,2,0,0,316,0.5333505
37,79100,2,2,-2,2,0,0,317,0.5001145
37,25100,2,1,-2,2,0,0,318,0.4999413
37,125500,1,2,2,2,4,45,319,0.5350571
37,65100,2,2,2,-2,0,45,320,0.6666967
37,28100,2,2,-2,2,0,0,321,0.5000171
37,143100,2,1,-2,-2,4,45,322,0.5834667
37,4100,2,2,2,-2,0,0,323,0.6166871
37,73100,2,2,-2,-2,4,0,324,0.5500477
37,173500,1,2,-2,2,0,45,325,0.500128
37,9100,2,2,2,-2,0,0,326,0.5500335
37,16100,2,1,-2,2,0,0,327,0.6167538
37,18500,1,2,-2,-2,4,0,328,0.4668007
37,60100,2,2,2,-2,0,45,329,0.6000131
37,105100,2,1,-2,2,0,45,330,0.5182255
37,141100,2,1,-2,2,0,45,331,0.4848546
37,63500,1,2,2,-2,0,45,332,0.5501129
37,1100,2,1,2,-2,0,45,333,0.4501249
37,152100,2,2,2,-2,0,45,334,0.4500466
37,60100,2,2,2,2,4,0,335,0.5168031
37,81100,2,2,-2,2,0,0,336,0.6334326
37,48100,2,1,2,2,4,0,337,0.5001238
37,136100,2,1,-2,2,0,0,338,0.6021475
37,87100,2,2,-2,-2,4,0,339,0.5500967
37,121100,2,1,-2,-2,4,45,340,0.5500289
37,122100,2,1,2,2,4,45,341,0.4501319
37,49100,2,1,-2,2,0,0,342,0.5333584
37,161100,2,1,-2,-2,4,45,343,0.5530059
37,21500,1,1,2,2,4,45,344,0.5500341
37,75100,2,2,2,-2,0,45,345,0.6834464
37,80100,2,2,2,-2,0,45,346,0.5500037
37,111100,2,1,-2,-2,4,45,347,0.7518425
37,144100,2,1,2,-2,0,0,348,0.700121
37,40100,2,2,-2,-2,4,45,349,0.5666861
37,66100,2,2,-2,-2,4,45,350,0.4168039
37,63500,1,1,-2,-2,4,0,351,0.4668004
37,157100,2,1,-2,2,0,45,352,0.4666831
37,126100,2,1,-2,2,0,0,353,0.4667816
37,38100,2,2,2,2,4,0,354,0.4334352
37,9100,2,2,2,2,4,45,355,0.5167484
37,141100,2,1,-2,-2,4,45,356,0.5833591
37,43100,2,2,2,2,4,45,357,0.5000265
37,121100,2,2,2,2,4,0,358,0.5168364
37,117100,2,1,-2,2,0,0,359,0.4181451
37,140500,1,2,2,2,4,45,360,0.5667768
37,8100,2,2,-2,2,0,45,361,1.1832985
37,43100,2,2,2,-2,0,0,362,0.5167195
37,8100,2,2,-2,-2,4,45,363,0.4507789
37,57100,2,1,-2,-2,4,45,364,0.4667986
37,23100,2,2,-2,-2,4,45,365,0.516587
37,18500,1,2,-2,2,0,0,366,0.5178259
37,109100,2,2,2,-2,0,45,367,0.4666269
37,10100,2,1,2,-2,0,0,368,0.8166098
37,143100,2,2,2,-2,0,45,369,0.5166454
37,60100,2,1,-2,-2,4,0,370,0.4833501
37,63100,2,1,2,2,4,0,371,0.5332935
37,23100,2,1,2,-2,0,0,372,0.516798
37,20100,2,1,2,-2,0,0,373,0.4500052
37,144100,2,2,-2,-2,4,45,374,0.5332746
37,20100,2,2,-2,-2,4,45,375,0.4500241
37,42100,2,1,2,2,4,45,376,0.5500051
37,63100,2,2,-2,-2,4,45,377,0.5168028
37,71100,2,2,-2,2,0,45,378,0.5333515
37,70100,2,2,2,-2,0,0,379,0.5333638
37,110100,2,2,-2,-2,4,0,380,0.5500124
37,29100,2,2,2,-2,0,0,381,0.5013325
37,127100,2,2,-2,-2,4,45,382,0.4999706
37,121100,2,2,2,-2,0,45,383,0.4833418
37,131100,2,1,2,2,4,0,384,0.5666378
37,26100,2,1,2,2,4,0,385,0.5500015
37,105100,2,1,-2,-2,4,0,386,0.5001301
37,138500,1,1,2,2,4,45,387,0.61671
37,2100,2,2,2,-2,0,0,388,0.6666831
37,140500,1,2,2,-2,0,0,389,0.7347858
37,101100,2,2,-2,2,0,45,390,0.9000496
37,131100,2,2,-2,-2,4,0,391,0.6333564
37,131100,2,1,2,-2,0,45,392,1.1501215
37,28100,2,1,2,2,4,0,393,0.5000455
37,30100,2,1,2,-2,0,45,394,0.533373
37,105500,1,1,2,-2,0,0,395,0.5167531
37,30100,2,2,-2,-2,4,45,396,0.483345
37,18100,2,2,2,-2,0,0,397,0.5666534
37,125100,2,1,2,2,4,0,398,0.5503156
37,128500,1,1,2,-2,0,45,399,0.5834219
37,48100,2,2,-2,-2,4,45,400,0.5334182
37,30100,2,2,-2,2,0,45,401,0.4843728
37,127100,2,1,2,-2,0,0,402,0.5166873
37,58100,2,1,2,2,4,0,403,0.6000403
37,93100,2,2,-2,-2,4,0,404,0.5500178
37,4500,1,1,2,-2,0,45,405,0.5676066
37,77100,2,1,-2,-2,4,0,406,0.5668133
37,70100,2,1,-2,-2,4,45,407,0.4833777
37,69100,2,1,2,-2,0,0,408,0.5000118
37,150100,2,1,2,-2,0,0,409,0.4505097
37,32100,2,1,2,-2,0,0,410,0.4833729
37,3100,2,1,2,-2,0,0,411,0.4021522
37,72100,2,2,2,-2,0,0,412,0.4166896
37,152100,2,2,2,2,4,45,413,0.4518364
37,81100,2,1,2,2,4,0,414,0.5500205
37,47100,2,2,2,2,4,45,415,0.5333695
37,115100,2,1,-2,2,0,0,416,0.5001045
37,65100,2,1,-2,-2,4,0,417,0.5167781
37,22100,2,2,2,-2,0,45,418,0.516698
37,146100,2,2,2,-2,0,0,419,0.5334557
37,103500,1,2,-2,-2,4,45,420,0.5018343
37,150100,2,2,-2,2,0,0,421,0.5341554
37,123500,1,2,-2,2,0,45,422,0.5500087
37,29500,1,2,-2,-2,4,45,423,0.4999863
37,108500,1,2,-2,-2,4,0,424,0.4347344
37,29100,2,2,2,2,4,0,425,0.4999573
37,132100,2,2,2,2,4,0,426,0.4500179
37,143500,1,1,2,2,4,45,427,0.4333853
37,56100,2,2,-2,2,0,45,428,0.4334175
37,157100,2,1,-2,-2,4,45,429,0.4666729
37,83100,2,2,2,-2,0,45,430,0.5500283
37,22500,1,2,2,-2,0,45,431,0.383433
37,127100,2,2,-2,2,0,45,432,0.4334693
37,35100,2,2,-2,2,0,45,433,0.4667033
37,113100,2,2,-2,2,0,45,434,0.383408
37,9100,2,1,-2,2,0,0,435,0.4168034
37,96100,2,1,-2,2,0,0,436,0.4694876
37,101500,1,2,-2,2,0,0,437,0.366747
37,80100,2,1,-2,2,0,45,438,0.3834334
37,94100,2,1,-2,2,0,0,439,0.5000442
37,62100,2,2,2,-2,0,45,440,0.5001088
37,116100,2,1,2,-2,0,0,441,0.5333837
37,32100,2,2,-2,-2,4,45,442,0.53334
37,94100,2,1,-2,-2,4,45,443,0.5000134
37,138500,1,1,2,-2,0,45,444,0.5167869
37,105100,2,2,2,-2,0,45,445,0.4834685
37,52100,2,1,2,-2,0,45,446,0.5167987
37,72100,2,2,2,2,4,45,447,0.5334557
37,138500,1,2,-2,2,0,0,448,0.5166811
37,92500,1,2,2,-2,0,45,449,0.4666523
37,95100,2,2,-2,2,0,45,450,0.5000244
37,106100,2,2,-2,-2,4,0,451,0.5000207
37,100100,2,1,-2,2,0,45,452,0.5001171
37,45100,2,1,2,2,4,0,453,0.9000099
37,96100,2,2,2,-2,0,0,454,0.6999935
37,37100,2,1,2,2,4,0,455,0.6500225
37,117500,1,2,2,2,4,45,456,0.6001056
37,104500,1,1,-2,2,0,45,457,0.5017769
37,7100,2,2,2,-2,0,0,458,0.6000176
37,12500,1,2,2,-2,0,45,459,0.5500262
37,41100,2,1,-2,-2,4,0,460,0.5167053
37,91100,2,1,-2,-2,4,0,461,0.4500236
37,86100,2,1,-2,-2,4,45,462,0.4834156
37,150100,2,2,-2,-2,4,45,463,0.383403
37,41500,1,2,-2,2,0,0,464,0.6501031
37,33500,1,2,-2,2,0,0,465,0.5011262
37,11100,2,2,2,-2,0,45,466,0.5332969
37,27100,2,2,2,-2,0,0,467,0.6166477
37,62100,2,1,-2,-2,4,45,468,0.5181276
37,33500,1,1,2,2,4,45,469,0.5166368
37,84100,2,1,2,-2,0,0,470,0.5680556
37,77100,2,2,2,2,4,0,471,0.5000336
37,8100,2,1,2,-2,0,0,472,0.450112
37,108500,1,2,-2,2,0,45,473,0.4168019
37,87100,2,1,2,2,4,45,474,0.5000244
37,2100,2,1,-2,-2,4,0,475,0.7998946
37,16100,2,2,2,-2,0,45,476,0.6006504
37,13100,2,1,2,-2,0,45,477,0.5683054
37,162100,2,2,-2,2,0,0,478,0.5999573
37,68500,1,2,-2,2,0,0,479,0.5499844
37,80100,2,1,-2,-2,4,45,480,0.8667089
37,128500,1,2,-2,2,0,45,481,0.5832813
37,55100,2,2,2,2,4,0,482,0.7000069
37,152100,2,1,-2,-2,4,45,483,0.5667053
37,111100,2,2,2,2,4,0,484,0.5000275
37,4500,1,2,-2,2,0,0,485,0.5500417
37,141500,1,2,-2,2,0,0,486,0.5167846
37,172500,1,1,-2,-2,4,0,487,0.5333387
37,49100,2,2,2,2,4,0,488,0.5334615
37,1100,2,2,-2,-2,4,0,489,0.467921
37,108100,2,1,2,2,4,45,490,0.5671971
37,91100,2,2,2,2,4,0,491,0.433308
37,48100,2,2,-2,2,0,0,492,0.4499612
37,71100,2,2,-2,-2,4,0,493,0.4666758
37,45100,2,1,2,-2,0,0,494,0.4511981
37,42100,2,1,2,-2,0,45,495,0.5834492
37,138100,2,2,-2,-2,4,0,496,0.3833619
37,4100,2,1,-2,2,0,0,497,0.5000309
37,136100,2,2,2,-2,0,45,498,0.5333475
37,117500,1,1,-2,-2,4,45,499,0.5667999
37,10100,2,1,2,2,4,0,500,0.4845881
37,33500,1,1,2,-2,0,0,501,0.4169023
37,105100,2,2,2,2,4,0,502,0.4667145
37,131500,1,1,-2,2,0,45,503,0.4833347
37,142100,2,2,-2,-2,4,45,504,0.5166925
37,22500,1,2,2,2,4,0,505,0.533503
37,146100,2,1,-2,2,0,0,506,0.4833707
37,58100,2,2,-2,2,0,0,507,0.4666937
37,56100,2,1,2,-2,0,45,508,0.4505392
37,113100,2,1,2,-2,0,45,509,0.416643
37,65100,2,1,-2,2,0,45,510,0.4334603
37,70100,2,2,2,2,4,0,511,0.5333591
37,108500,1,1,2,2,4,0,512,0.4501374
37,132100,2,1,-2,-2,4,45,513,0.5501257
37,58100,2,1,2,-2,0,0,514,0.6334087
37,43100,2,1,-2,-2,4,45,515,0.5834059
37,132500,1,2,-2,2,0,45,516,0.5334683
37,71100,2,1,2,2,4,0,517,0.583411
37,108100,2,1,2,-2,0,45,518,0.4511684
37,95100,2,1,2,2,4,45,519,0.5501138
37,66100,2,1,2,-2,0,0,520,0.6334258
37,105500,1,2,-2,2,0,45,521,0.6333605
37,8100,2,1,2,2,4,0,522,0.5834392
37,55100,2,1,-2,-2,4,0,523,0.5667705
37,42100,2,2,-2,-2,4,0,524,0.5335003
37,68100,2,2,2,-2,0,0,525,0.6667817
37,126100,2,2,2,-2,0,0,526,0.650099
37,17100,2,1,2,-2,0,0,527,0.6001225
37,58100,2,2,-2,-2,4,0,528,0.5834312
37,101500,1,1,2,-2,0,45,529,0.4839212
37,63500,1,2,2,2,4,0,530,0.6000403
37,75100,2,2,2,2,4,45,531,0.7833088
37,52100,2,2,-2,2,0,45,532,0.6000789
37,150100,2,1,2,2,4,45,533,0.6167493
37,3100,2,2,-2,-2,4,0,534,0.5166798
37,105500,1,2,-2,-2,4,45,535,0.566693
37,110100,2,1,2,-2,0,45,536,0.5833553
37,124100,2,1,-2,-2,4,45,537,0.4334442
37,101100,2,1,2,-2,0,45,538,0.5000218
37,32100,2,1,2,2,4,0,539,0.5667893
37,47100,2,1,-2,2,0,0,540,0.6333375
37,113100,2,2,-2,-2,4,45,541,0.5834312
37,33500,1,2,-2,-2,4,45,542,0.4833514
37,132100,2,1,-2,2,0,45,543,0.5166887
37,37100,2,2,-2,-2,4,45,544,0.5333568
37,109100,2,2,2,2,4,45,545,0.4666831
37,162100,2,2,-2,-2,4,0,546,1.0001163
37,18500,1,1,2,-2,0,0,547,1.1860823
37,73100,2,2,-2,2,0,45,548,0.5334084
37,66100,2,2,-2,2,0,45,549,0.4668032
37,21500,1,2,-2,2,0,0,550,0.7832945
37,143100,2,1,-2,2,0,45,551,1.2833981
37,142100,2,2,-2,2,0,0,552,0.9334425
37,126100,2,2,2,2,4,0,553,0.5500325
37,73100,2,1,2,2,4,45,554,0.4668024
37,69100,2,1,2,2,4,45,555,0.4334058
37,115100,2,2,2,-2,0,45,556,0.6001338
37,61100,2,2,-2,2,0,45,557,0.5499943
37,92500,1,1,-2,2,0,45,558,0.4334586
37,1100,2,2,-2,2,0,0,559,0.4838642
37,86100,2,2,2,-2,0,0,560,0.4833772
37,41100,2,2,2,-2,0,0,561,0.4166294
37,31500,1,1,-2,-2,4,45,562,0.4666192
37,116100,2,1,2,2,4,0,563,0.5000322
37,31100,2,1,-2,2,0,0,564,0.5668047
37,104500,1,2,2,2,4,0,565,0.4666945
37,29100,2,1,-2,-2,4,45,566,0.5001316
37,124100,2,2,2,-2,0,45,567,0.4001155
38,109100,2,2,2,-2,0,45,0,0.633398
38,4500,1,1,2,-2,0,0,1,0.5667879
38,23100,2,1,2,2,4,45,2,0.5001204
38,101500,1,1,-2,-2,4,45,3,0.8166371
38,105500,1,2,2,2,4,0,4,0.5833179
38,100100,2,1,-2,2,0,45,5,0.5500128
38,1100,2,1,-2,-2,4,45,6,0.6501055
38,125100,2,1,2,-2,0,0,7,0.6667097
38,93100,2,2,2,2,4,0,8,0.6843073
38,136100,2,1,-2,-2,4,0,9,0.6167815
38,76100,2,1,-2,-2,4,45,10,0.583386
38,10100,2,1,-2,2,0,45,11,0.7000336
38,117100,2,1,-2,2,0,45,12,0.4832886
38,92500,1,2,2,-2,0,45,13,0.7834301
38,60100,2,1,2,2,4,45,14,0.6001236
38,57100,2,1,-2,2,0,0,15,0.6000619
38,161100,2,1,-2,-2,4,45,16,0.6000401
38,94100,2,2,-2,-2,4,0,17,0.6501247
38,28100,2,2,2,2,4,0,18,0.6333698
38,140500,1,1,-2,-2,4,0,19,0.5333855
38,81100,2,1,-2,2,0,0,20,0.633454
38,45100,2,2,-2,2,0,45,21,0.6500475
38,20100,2,2,2,2,4,45,22,0.6167896
38,150100,2,2,2,2,4,0,23,0.5834353
38,72100,2,1,-2,-2,4,45,24,0.6167415
38,11100,2,1,-2,-2,4,45,25,0.6000175
38,13100,2,2,-2,2,0,0,26,0.5850047
38,10100,2,2,2,-2,0,45,27,0.6000639
38,68500,1,2,2,-2,0,45,28,0.5500342
38,92500,1,2,2,2,4,0,29,0.5666706
38,52100,2,1,-2,-2,4,0,30,0.3667036
38,172500,1,1,-2,-2,4,45,31,0.5000876
38,126100,2,2,2,-2,0,45,32,0.5500491
38,31100,2,1,-2,2,0,45,33,0.5334163
38,132100,2,1,-2,-2,4,45,34,0.6667253
38,94100,2,1,2,-2,0,0,35,0.8167403
38,33500,1,2,2,-2,0,45,36,0.5667569
38,36100,2,1,-2,2,0,45,37,0.5000388
38,27100,2,2,-2,-2,4,0,38,0.483392
38,5100,2,2,-2,-2,4,45,39,0.5172951
38,68500,1,1,-2,2,0,0,40,0.5667231
38,20100,2,1,-2,2,0,45,41,0.7833567
38,23100,2,1,2,-2,0,0,42,0.7687122
38,4500,1,2,-2,2,0,0,43,0.7666268
38,83100,2,1,2,2,4,45,44,0.5666262
38,172500,1,2,2,-2,0,45,45,0.7166453
38,29100,2,2,2,-2,0,0,46,0.6999859
38,7100,2,1,-2,-2,4,45,47,0.6167779
38,47100,2,1,-2,-2,4,0,48,0.6174512
38,93100,2,1,-2,2,0,0,49,0.6501175
38,29500,1,2,-2,-2,4,0,50,0.5834555
38,96100,2,2,2,2,4,0,51,0.5167851
38,150100,2,1,-2,-2,4,45,52,0.5500372
38,107100,2,1,-2,2,0,0,53,0.5001213
38,28100,2,1,-2,-2,4,45,54,0.5500515
38,8100,2,1,-2,-2,4,45,55,0.5500425
38,29100,2,1,-2,-2,4,0,56,0.5500992
38,158100,2,2,-2,2,0,0,57,0.5501003
38,172500,1,1,-2,2,0,45,58,0.5167566
38,38100,2,1,-2,2,0,0,59,0.5498922
38,9100,2,1,2,-2,0,45,60,0.4668035
38,41100,2,2,-2,-2,4,0,61,0.5833761
38,127100,2,2,2,-2,0,0,62,0.5166787
38,72100,2,2,2,2,4,0,63,0.4678448
38,138100,2,2,2,-2,0,0,64,0.4167953
38,95100,2,2,2,2,4,0,65,0.4334129
38,120100,2,2,2,-2,0,0,66,0.383416
38,42100,2,1,-2,2,0,45,67,0.4833667
38,132100,2,1,-2,2,0,45,68,0.4667693
38,138500,1,2,-2,-2,4,45,69,0.5334637
38,125500,1,1,-2,2,0,45,70,0.4516299
38,61100,2,2,2,2,4,45,71,0.5001293
38,56100,2,1,2,-2,0,45,72,0.433379
38,21500,1,1,2,-2,0,45,73,0.583469
38,27100,2,1,2,-2,0,45,74,0.6000338
38,49100,2,1,2,-2,0,0,75,0.5500264
38,25100,2,1,-2,2,0,0,76,0.5834679
38,116100,2,1,2,-2,0,0,77,0.5167168
38,104500,1,1,-2,-2,4,0,78,0.5168018
38,17100,2,2,2,2,4,0,79,0.5517739
38,56100,2,1,2,2,4,45,80,0.6167119
38,68100,2,1,2,2,4,0,81,0.6834134
38,152100,2,1,2,-2,0,0,82,0.5842087
38,36100,2,2,2,2,4,45,83,0.9000976
38,111100,2,1,2,2,4,45,84,0.4500909
38,22100,2,2,2,2,4,0,85,0.6000212
38,138500,1,2,-2,2,0,45,86,0.6334528
38,8100,2,2,2,2,4,45,87,0.5166408
38,117500,1,1,-2,2,0,0,88,0.6001289
38,105500,1,1,-2,2,0,0,89,0.533371
38,87100,2,2,-2,-2,4,0,90,0.4500232
38,79100,2,1,2,-2,0,45,91,0.5666416
38,49100,2,1,2,2,4,45,92,0.6000212
38,121100,2,2,-2,2,0,0,93,0.6500991
38,104500,1,2,2,-2,0,0,94,0.6000281
38,13100,2,2,-2,-2,4,45,95,0.6167578
38,81100,2,1,-2,-2,4,45,96,0.5333759
38,40100,2,1,-2,-2,4,45,97,0.6501159
38,130500,1,1,2,2,4,0,98,0.5333748
38,84100,2,2,2,2,4,45,99,0.6014431
38,77100,2,2,2,-2,0,45,100,0.8667097
38,161100,2,2,2,-2,0,0,101,0.6166913
38,128500,1,1,-2,2,0,0,102,0.6167094
38,127100,2,1,-2,-2,4,0,103,0.4166468
38,84100,2,2,2,-2,0,0,104,0.4667158
38,126100,2,2,2,2,4,45,105,0.7500358
38,100100,2,2,2,2,4,0,106,0.6333753
38,32100,2,2,2,2,4,45,107,0.6833917
38,107100,2,2,2,2,4,0,108,0.8833672
38,63500,1,2,2,-2,0,45,109,0.7500404
38,103500,1,2,-2,2,0,0,110,0.5668042
38,126100,2,1,-2,2,0,45,111,0.667291
38,122100,2,2,2,2,4,45,112,0.516794
38,75100,2,2,-2,2,0,0,113,0.6167747
38,125100,2,2,-2,2,0,0,114,0.6167555
38,108100,2,2,-2,2,0,45,115,0.6001223
38,52100,2,2,2,2,4,0,116,0.5167893
38,62100,2,1,-2,-2,4,0,117,0.61678
38,122100,2,2,2,-2,0,45,118,0.6167007
38,104500,1,2,2,2,4,45,119,0.5667014
38,41500,1,2,-2,-2,4,45,120,0.5000228
38,27100,2,2,-2,2,0,45,121,0.4333251
38,70100,2,2,2,2,4,45,122,0.5167793
38,75100,2,1,2,-2,0,0,123,0.9500372
38,68500,1,1,-2,-2,4,0,124,0.4501323
38,62100,2,2,2,-2,0,45,125,0.5833995
38,13100,2,1,2,-2,0,0,126,0.5500365
38,108100,2,1,2,2,4,45,127,0.5167633
38,3100,2,2,2,2,4,0,128,0.4834304
38,131500,1,1,-2,2,0,0,129,0.4834064
38,43100,2,2,2,-2,0,0,130,0.4667552
38,94100,2,1,2,2,4,45,131,0.4341538
38,124100,2,1,-2,-2,4,0,132,0.4500899
38,69500,1,1,2,-2,0,0,133,0.400065
38,152100,2,2,-2,2,0,0,134,0.5167058
38,105100,2,1,2,2,4,45,135,0.5000421
38,29100,2,2,2,2,4,0,136,0.3501359
38,28100,2,1,-2,2,0,0,137,0.5000347
38,63100,2,1,2,-2,0,45,138,0.5517839
38,70100,2,1,-2,2,0,0,139,0.4834282
38,5100,2,1,2,2,4,0,140,0.3834276
38,107100,2,1,-2,-2,4,45,141,0.3667581
38,138500,1,1,2,2,4,45,142,0.4833939
38,38100,2,2,2,2,4,0,143,0.516631
38,146100,2,1,-2,2,0,0,144,0.6847299
38,143100,2,1,-2,2,0,45,145,0.4000425
38,25100,2,2,2,2,4,0,146,0.5167324
38,8100,2,2,2,-2,0,0,147,0.4000576
38,31100,2,2,2,2,4,45,148,0.4333667
38,71100,2,1,2,-2,0,45,149,0.550024
38,108500,1,2,-2,-2,4,0,150,0.633368
38,162100,2,2,2,-2,0,45,151,0.5167024
38,68500,1,2,2,2,4,0,152,0.5166955
38,125500,1,1,-2,-2,4,0,153,0.4333683
38,31100,2,1,-2,-2,4,0,154,0.4666905
38,4100,2,1,-2,-2,4,45,155,0.4666802
38,55100,2,2,2,-2,0,45,156,0.5001399
38,94100,2,2,-2,2,0,45,157,0.3833857
38,37100,2,1,2,-2,0,45,158,0.4000163
38,30100,2,1,2,2,4,0,159,0.6340833
38,110100,2,1,-2,2,0,0,160,0.5000585
38,83100,2,2,-2,2,0,45,161,0.5000859
38,26100,2,1,-2,-2,4,0,162,1.3333346
38,29100,2,1,-2,2,0,0,163,0.5166926
38,115100,2,2,2,-2,0,0,164,0.4834673
38,138100,2,1,-2,2,0,0,165,0.466766
38,57100,2,2,2,-2,0,45,166,0.6667549
38,41500,1,1,2,2,4,45,167,0.6667972
38,141500,1,1,-2,-2,4,45,168,0.5500121
38,98100,2,1,2,2,4,0,169,0.5005105
38,76100,2,1,-2,2,0,0,170,0.4167615
38,33100,2,1,2,-2,0,0,171,0.5001211
38,12500,1,2,2,-2,0,0,172,0.3500195
38,18100,2,1,2,-2,0,45,173,0.4500451
38,69500,1,2,-2,-2,4,0,174,0.5501163
38,117500,1,1,-2,-2,4,0,175,0.5667941
38,117500,1,2,2,2,4,45,176,0.466695
38,22100,2,1,-2,-2,4,0,177,0.4666917
38,157100,2,2,2,-2,0,0,178,0.4667238
38,143100,2,2,2,2,4,45,179,0.4833906
38,144100,2,2,-2,2,0,0,180,0.5834262
38,96100,2,2,2,-2,0,45,181,0.5334297
38,141500,1,2,2,-2,0,0,182,0.5667766
38,1100,2,2,2,2,4,0,183,0.900035
38,131100,2,1,-2,2,0,45,184,0.4000406
38,11100,2,1,-2,2,0,45,185,0.4001342
38,131500,1,2,2,2,4,0,186,0.4349071
38,73100,2,2,2,2,4,45,187,0.6166968
38,123500,1,2,-2,2,0,45,188,0.5333416
38,130500,1,2,-2,2,0,0,189,0.5167234
38,29500,1,1,2,2,4,0,190,0.5166985
38,110100,2,1,-2,-2,4,0,191,0.4833733
38,143100,2,2,2,-2,0,45,192,0.5334572
38,108500,1,1,2,2,4,45,193,0.4833768
38,52100,2,1,-2,2,0,0,194,0.566707
38,32100,2,1,-2,-2,4,45,195,0.6668042
38,113100,2,1,-2,2,0,0,196,0.5501326
38,109100,2,2,2,2,4,0,197,0.516719
38,77100,2,1,-2,-2,4,0,198,1.0174379
38,3100,2,2,2,-2,0,45,199,0.916935
38,26100,2,2,2,2,4,0,200,0.5667919
38,41100,2,1,2,2,4,45,201,0.6667442
38,100100,2,2,2,-2,0,0,202,0.8667645
38,116100,2,2,-2,2,0,0,203,0.7167276
38,162100,2,1,-2,2,0,0,204,0.450024
38,142100,2,1,-2,2,0,45,205,0.5000366
38,38100,2,2,2,-2,0,0,206,0.4681323
38,150100,2,2,2,-2,0,45,207,0.6501371
38,105100,2,2,-2,2,0,45,208,1.0834063
38,7100,2,2,2,2,4,0,209,0.5166406
38,128500,1,1,-2,-2,4,0,210,0.4001377
38,144100,2,2,-2,-2,4,0,211,0.3168294
38,152100,2,1,2,2,4,45,212,0.4666268
38,101500,1,1,-2,2,0,45,213,0.4000613
38,55100,2,1,-2,2,0,45,214,0.3833603
38,69100,2,1,-2,2,0,0,215,0.583364
38,101100,2,2,2,-2,0,0,216,0.4667017
38,136100,2,2,2,2,4,0,217,0.4168026
38,117100,2,2,2,-2,0,45,218,0.5667154
38,100100,2,1,-2,-2,4,0,219,0.5500243
38,120100,2,1,-2,-2,4,45,220,0.5333415
38,111100,2,1,2,-2,0,45,221,0.5176133
38,122100,2,1,-2,2,0,0,222,0.5834483
38,41100,2,2,-2,2,0,0,223,0.4669344
38,35100,2,2,2,-2,0,45,224,0.5333696
38,75100,2,2,-2,-2,4,45,225,0.5525741
38,132500,1,1,-2,2,0,45,226,0.5501288
38,69500,1,2,-2,2,0,45,227,0.4167999
38,26500,1,1,-2,-2,4,45,228,0.3833753
38,55100,2,2,2,2,4,0,229,0.5500436
38,161100,2,1,-2,2,0,45,230,0.5666994
38,144100,2,1,2,-2,0,45,231,0.4844028
38,40100,2,1,-2,2,0,45,232,0.7334091
38,124100,2,2,2,-2,0,0,233,0.4501364
38,26500,1,2,2,-2,0,0,234,0.3834166
38,126100,2,1,-2,-2,4,45,235,0.4833875
38,108500,1,1,2,-2,0,0,236,0.5166523
38,28100,2,2,2,-2,0,0,237,0.5516967
38,146100,2,2,2,2,4,45,238,0.5500911
38,141500,1,2,2,2,4,45,239,0.6334112
38,36100,2,1,-2,-2,4,45,240,0.5000239
38,134100,2,1,2,2,4,45,241,0.4168268
38,161100,2,2,2,2,4,45,242,0.3175447
38,141100,2,1,2,2,4,0,243,0.7167557
38,33500,1,1,-2,2,0,45,244,0.4666396
38,84100,2,1,-2,-2,4,0,245,0.4333631
38,95100,2,1,-2,2,0,0,246,0.5166999
38,22500,1,1,-2,-2,4,0,247,0.4001303
38,25100,2,1,-2,-2,4,0,248,0.45003
38,117500,1,2,2,-2,0,0,249,0.3833706
38,93100,2,2,2,-2,0,45,250,0.5833629
38,80100,2,1,-2,-2,4,0,251,0.4666993
38,153100,2,1,-2,2,0,45,252,0.4667121
38,7100,2,1,-2,2,0,0,253,0.5834183
38,63100,2,2,-2,-2,4,45,254,0.4834386
38,43100,2,1,-2,-2,4,45,255,0.5000496
38,87100,2,1,2,2,4,45,256,0.533326
38,66100,2,2,2,-2,0,45,257,0.5000451
38,111100,2,2,-2,2,0,45,258,0.4834572
38,48100,2,2,2,2,4,0,259,1.699912
38,55100,2,1,-2,-2,4,0,260,0.4677389
38,18100,2,1,2,2,4,0,261,0.5172718
38,136100,2,1,-2,2,0,45,262,0.5166238
38,65100,2,1,-2,-2,4,0,263,0.4666345
38,96100,2,1,-2,-2,4,0,264,0.4334788
38,16100,2,2,2,-2,0,0,265,0.4500875
38,22100,2,1,-2,2,0,0,266,0.450022
38,80100,2,2,2,2,4,0,267,0.3833727
38,79100,2,1,2,2,4,45,268,0.4833711
38,30100,2,2,-2,-2,4,0,269,0.6834773
38,129100,2,2,-2,-2,4,45,270,0.7833754
38,2100,2,1,2,2,4,0,271,0.6333521
38,63500,1,2,2,2,4,45,272,0.9167288
38,73100,2,2,2,-2,0,0,273,0.5333838
38,66100,2,1,-2,2,0,45,274,0.4333495
38,157100,2,1,-2,2,0,0,275,0.6333768
38,92500,1,1,-2,2,0,0,276,0.5000417
38,106100,2,2,2,-2,0,45,277,0.4186091
38,41100,2,1,2,-2,0,0,278,0.8500504
38,17100,2,2,2,-2,0,0,279,0.4666579
38,152100,2,2,-2,-2,4,45,280,0.4167265
38,72100,2,1,-2,2,0,0,281,0.4679967
38,30100,2,1,2,-2,0,0,282,0.4186195
38,111100,2,2,-2,-2,4,45,283,0.4667041
38,108100,2,2,-2,-2,4,0,284,0.3834105
38,26100,2,2,2,-2,0,45,285,0.5842915
38,60100,2,2,-2,2,0,45,286,0.4673039
38,45100,2,1,2,-2,0,45,287,0.6501227
38,158100,2,1,2,-2,0,45,288,0.4834045
38,105100,2,1,2,-2,0,0,289,0.5500161
38,104500,1,1,-2,2,0,45,290,0.5833345
38,9100,2,2,-2,-2,4,45,291,0.7833961
38,10100,2,1,-2,-2,4,45,292,0.4853738
38,125500,1,2,2,2,4,45,293,0.4667585
38,131100,2,2,2,2,4,0,294,0.5667578
38,173500,1,1,-2,-2,4,0,295,0.4500545
38,173500,1,2,2,-2,0,0,296,0.433407
38,27100,2,1,2,2,4,45,297,0.4669013
38,123500,1,1,2,-2,0,0,298,0.4666841
38,37100,2,2,-2,-2,4,0,299,0.5999715
38,91100,2,2,2,2,4,45,300,0.5516254
38,65100,2,2,2,-2,0,45,301,1.1000209
38,69500,1,1,2,2,4,45,302,0.5002345
38,93100,2,1,-2,-2,4,45,303,0.6000545
38,63100,2,2,-2,2,0,0,304,0.7500333
38,49100,2,2,-2,2,0,0,305,0.5343066
38,8100,2,1,-2,2,0,0,306,0.9338843
38,141100,2,2,-2,-2,4,45,307,0.5000502
38,75100,2,1,2,2,4,45,308,0.4500375
38,23100,2,2,-2,2,0,45,309,0.6334437
38,25100,2,2,2,-2,0,0,310,0.5334649
38,65100,2,2,2,2,4,0,311,1.0858341
38,131500,1,2,2,-2,0,45,312,0.4999946
38,35100,2,1,-2,-2,4,0,313,0.6514103
38,77100,2,1,-2,2,0,0,314,0.5000835
38,38100,2,1,-2,-2,4,45,315,1.0000249
38,116100,2,1,2,2,4,45,316,0.9001221
38,122100,2,1,-2,-2,4,0,317,0.5501119
38,65100,2,1,-2,2,0,0,318,0.5667537
38,79100,2,2,-2,-2,4,0,319,0.5000557
38,113100,2,1,-2,-2,4,0,320,0.3167189
38,31500,1,2,2,2,4,0,321,0.3834688
38,37100,2,2,-2,2,0,0,322,0.9167207
38,37100,2,1,2,2,4,0,323,0.4667674
38,124100,2,2,2,2,4,45,324,0.6000215
38,101100,2,1,-2,2,0,0,325,4.1832945
38,31500,1,2,2,-2,0,0,326,0.416794
38,71100,2,1,2,2,4,45,327,0.3667004
38,101500,1,2,2,-2,0,0,328,0.566693
38,91100,2,2,2,-2,0,0,329,0.4000432
38,106100,2,2,2,2,4,0,330,0.4501237
38,113100,2,2,2,-2,0,45,331,0.533428
38,129100,2,2,-2,2,0,0,332,0.9500426
38,20100,2,2,2,-2,0,45,333,0.5166508
38,36100,2,2,2,-2,0,45,334,0.551629
38,48100,2,2,2,-2,0,0,335,0.4833818
38,1100,2,2,2,-2,0,45,336,0.4834453
38,101100,2,1,-2,-2,4,45,337,0.4500461
38,141500,1,1,-2,2,0,0,338,0.5333697
38,162100,2,2,2,2,4,0,339,0.500057
38,45100,2,1,2,2,4,0,340,0.4666997
38,134100,2,2,-2,2,0,0,341,0.4834175
38,134100,2,2,-2,-2,4,45,342,0.500054
38,141100,2,2,-2,2,0,45,343,0.3340721
38,57100,2,1,-2,-2,4,45,344,0.466706
38,124100,2,1,-2,2,0,0,345,0.5501341
38,142100,2,2,2,2,4,0,346,0.4167924
38,153100,2,2,2,-2,0,0,347,0.4167203
38,98100,2,2,-2,2,0,0,348,0.5999758
38,5100,2,1,2,-2,0,0,349,0.4500295
38,115100,2,1,-2,2,0,45,350,0.467697
38,4100,2,2,2,2,4,45,351,0.4666921
38,106100,2,1,-2,-2,4,45,352,0.4835975
38,110100,2,2,2,2,4,45,353,0.5333453
38,86100,2,2,2,-2,0,0,354,0.5333767
38,87100,2,2,-2,2,0,0,355,0.850101
38,120100,2,2,2,2,4,45,356,0.4667907
38,66100,2,1,-2,-2,4,45,357,0.5167213
38,131100,2,2,2,-2,0,45,358,0.4667091
38,86100,2,1,-2,-2,4,45,359,0.5000271
38,86100,2,2,2,2,4,45,360,0.5344154
38,21500,1,1,2,2,4,0,361,0.6000457
38,98100,2,1,2,-2,0,0,362,0.5833958
38,47100,2,1,-2,2,0,45,363,1.7666652
38,31500,1,1,-2,-2,4,45,364,0.4833888
38,2100,2,1,2,-2,0,45,365,0.4834347
38,106100,2,1,-2,2,0,45,366,0.4667604
38,18500,1,2,2,-2,0,0,367,0.4167166
38,42100,2,2,2,2,4,0,368,0.5167899
38,12500,1,2,2,2,4,0,369,0.7000165
38,162100,2,1,-2,-2,4,45,370,0.4833868
38,146100,2,1,-2,-2,4,0,371,0.5500363
38,33100,2,2,-2,2,0,45,372,1.1333338
38,142100,2,1,-2,-2,4,0,373,0.8500486
38,73100,2,1,-2,-2,4,45,374,1.2667539
38,146100,2,2,2,-2,0,45,375,0.5500234
38,80100,2,1,-2,2,0,0,376,0.7000239
38,32100,2,2,2,-2,0,0,377,0.8167864
38,21500,1,2,-2,2,0,0,378,0.5006859
38,22100,2,2,2,-2,0,45,379,0.5167352
38,143100,2,1,-2,-2,4,45,380,0.4833648
38,121500,1,1,-2,-2,4,45,381,0.8500301
38,41500,1,1,2,-2,0,45,382,1.5165184
38,115100,2,1,-2,-2,4,0,383,0.500016
38,120100,2,1,-2,2,0,0,384,0.4667454
38,80100,2,2,2,-2,0,45,385,0.5515123
38,129100,2,1,2,-2,0,45,386,0.4833662
38,3100,2,1,-2,-2,4,45,387,0.6834376
38,121100,2,1,2,2,4,0,388,1.6834258
38,49100,2,2,-2,-2,4,45,389,0.4833703
38,71100,2,2,-2,-2,4,45,390,0.5167096
38,60100,2,1,2,-2,0,45,391,0.550121
38,127100,2,2,2,2,4,45,392,2.5000315
38,12500,1,1,-2,-2,4,0,393,0.5833625
38,69100,2,1,-2,-2,4,45,394,1.1000287
38,77100,2,2,2,2,4,45,395,0.4672051
38,123500,1,2,-2,-2,4,0,396,0.5667986
38,22500,1,2,2,-2,0,0,397,0.500056
38,107100,2,2,2,-2,0,0,398,0.5000984
38,157100,2,2,2,2,4,45,399,0.5000231
38,56100,2,2,-2,2,0,45,400,0.5668079
38,103500,1,1,2,-2,0,0,401,1.5000029
38,123500,1,1,2,2,4,45,402,0.551299
38,143500,1,2,-2,-2,4,45,403,0.6000277
38,157100,2,1,-2,-2,4,0,404,0.5687328
38,60100,2,2,-2,-2,4,0,405,0.7333996
38,58100,2,1,-2,2,0,0,406,0.8001241
38,121100,2,2,-2,-2,4,0,407,2.7165888
38,70100,2,2,2,-2,0,45,408,0.5333453
38,56100,2,2,-2,-2,4,0,409,0.5166211
38,17100,2,1,-2,-2,4,45,410,0.4833589
38,140500,1,1,-2,2,0,45,411,0.4833925
38,23100,2,2,-2,-2,4,45,412,0.450011
38,121100,2,1,2,-2,0,0,413,0.4006015
38,83100,2,1,2,-2,0,45,414,0.8182894
38,22500,1,1,-2,2,0,0,415,0.7166613
38,113100,2,2,2,2,4,0,416,3.5499655
38,132500,1,2,2,-2,0,0,417,0.3685592
38,173500,1,2,2,2,4,45,418,0.5500506
38,95100,2,1,-2,-2,4,45,419,0.5667158
38,18100,2,2,-2,2,0,0,420,0.4840674
38,48100,2,1,-2,2,0,0,421,0.3833843
38,47100,2,2,2,2,4,45,422,0.5834033
38,144100,2,1,2,2,4,45,423,0.4667334
38,45100,2,2,-2,-2,4,45,424,0.600039
38,138100,2,2,2,2,4,45,425,0.4666527
38,35100,2,1,-2,2,0,0,426,0.7000469
38,12500,1,1,-2,2,0,45,427,0.4667802
38,57100,2,2,2,2,4,45,428,0.6500319
38,63100,2,1,2,2,4,45,429,0.8842401
38,121500,1,1,-2,2,0,0,430,1.10009
38,40100,2,2,2,-2,0,45,431,0.5834554
38,69100,2,2,2,2,4,45,432,0.5167769
38,140500,1,2,2,-2,0,45,433,2.8500576
38,2100,2,2,-2,-2,4,0,434,0.5833788
38,58100,2,2,2,-2,0,0,435,0.6516331
38,92500,1,1,-2,-2,4,0,436,1.0333662
38,62100,2,1,-2,2,0,0,437,0.4667035
38,5100,2,2,-2,2,0,0,438,0.3500537
38,11100,2,2,2,2,4,45,439,0.483437
38,63500,1,1,-2,-2,4,45,440,0.5502307
38,105100,2,2,-2,-2,4,0,441,0.700077
38,143500,1,1,2,-2,0,45,442,0.7333516
38,3100,2,1,-2,2,0,0,443,0.5667076
38,125500,1,2,2,-2,0,0,444,0.6833717
38,52100,2,2,2,-2,0,45,445,3.1166752
38,30100,2,2,-2,2,0,45,446,0.5667041
38,129100,2,1,2,2,4,45,447,0.4333748
38,33500,1,2,2,2,4,45,448,0.3667118
38,105500,1,2,2,-2,0,45,449,0.5334061
38,132100,2,2,2,-2,0,45,450,0.516758
38,125100,2,2,-2,-2,4,45,451,0.5333386
38,4500,1,1,2,2,4,0,452,1.883439
38,4500,1,2,-2,-2,4,45,453,0.5166425
38,143500,1,1,2,2,4,0,454,0.5333793
38,153100,2,1,-2,-2,4,45,455,0.4833704
38,117100,2,1,-2,-2,4,0,456,0.6001478
38,131100,2,1,-2,-2,4,0,457,0.4333858
38,68100,2,2,-2,-2,4,45,458,0.7167174
38,33500,1,1,-2,-2,4,0,459,0.6167049
38,110100,2,2,2,-2,0,0,460,0.3834404
38,33100,2,1,2,2,4,45,461,0.5517676
38,68100,2,2,-2,2,0,45,462,1.3679016
38,17100,2,1,-2,2,0,0,463,0.5000564
38,9100,2,2,-2,2,0,45,464,0.5505616
38,58100,2,1,-2,-2,4,0,465,0.5167361
38,116100,2,2,-2,-2,4,45,466,0.1833764
38,108500,1,2,-2,2,0,0,467,0.4501324
38,109100,2,1,-2,-2,4,45,468,0.483382
38,136100,2,2,2,-2,0,0,469,0.5167247
38,7100,2,2,2,-2,0,45,470,0.5499705
38,84100,2,1,-2,2,0,45,471,0.3833907
38,20100,2,1,-2,-2,4,45,472,0.4000326
38,21500,1,2,-2,-2,4,45,473,0.6518104
38,26500,1,2,2,2,4,45,474,0.3833568
38,98100,2,2,-2,-2,4,0,475,0.4667584
38,47100,2,2,2,-2,0,0,476,0.483451
38,73100,2,1,-2,2,0,0,477,0.4833807
38,153100,2,2,2,2,4,45,478,0.4667435
38,29500,1,2,-2,2,0,0,479,0.4834208
38,86100,2,1,-2,2,0,0,480,0.3833434
38,26100,2,1,-2,2,0,45,481,0.4851925
38,11100,2,2,2,-2,0,45,482,0.5000538
38,43100,2,1,-2,2,0,45,483,0.7834589
38,158100,2,1,2,2,4,45,484,0.5167168
38,142100,2,2,2,-2,0,45,485,0.6000657
38,79100,2,2,-2,2,0,0,486,0.5500583
38,91100,2,1,-2,-2,4,45,487,2.3666407
38,29500,1,1,2,-2,0,45,488,0.5334679
38,134100,2,1,2,-2,0,45,489,0.4834766
38,140500,1,2,2,2,4,45,490,0.4334041
38,76100,2,2,2,2,4,45,491,0.4167931
38,32100,2,1,-2,2,0,45,492,0.4834592
38,128500,1,2,2,-2,0,45,493,0.4351641
38,63500,1,1,-2,2,0,0,494,0.500119
38,58100,2,2,2,2,4,0,495,0.434325
38,173500,1,1,-2,2,0,45,496,0.4501354
38,40100,2,2,2,2,4,45,497,0.3837502
38,158100,2,2,-2,-2,4,0,498,0.5667949
38,143500,1,2,-2,2,0,0,499,0.4668085
38,33100,2,2,-2,-2,4,45,500,0.5167009
38,101100,2,2,2,2,4,0,501,0.516765
38,16100,2,1,-2,-2,4,0,502,0.466774
38,103500,1,1,2,2,4,45,503,0.4834721
38,61100,2,1,-2,2,0,0,504,0.5500971
38,132100,2,2,2,2,4,0,505,0.5843545
38,81100,2,2,2,2,4,45,506,0.5000297
38,9100,2,1,2,2,4,0,507,0.78367
38,96100,2,1,-2,2,0,0,508,0.5000331
38,71100,2,2,-2,2,0,45,509,0.5167844
38,130500,1,1,2,-2,0,0,510,0.5500191
38,31500,1,1,-2,2,0,0,511,0.4333927
38,61100,2,1,-2,-2,4,0,512,0.4333803
38,150100,2,1,-2,2,0,45,513,0.4499868
38,66100,2,2,2,2,4,45,514,0.4333986
38,43100,2,2,2,2,4,45,515,0.3833355
38,108100,2,1,2,-2,0,45,516,0.5668029
38,42100,2,1,-2,-2,4,0,517,0.43347
38,127100,2,1,-2,2,0,0,518,0.4166945
38,22500,1,2,2,2,4,0,519,0.3499912
38,41500,1,2,-2,2,0,45,520,0.4500836
38,13100,2,1,2,2,4,0,521,0.5168045
38,121500,1,2,2,-2,0,45,522,0.5334674
38,4100,2,2,2,-2,0,0,523,0.5499765
38,105500,1,1,-2,-2,4,0,524,0.4333786
38,83100,2,2,-2,-2,4,0,525,0.5667406
38,35100,2,2,2,2,4,45,526,0.5678304
38,141100,2,1,2,-2,0,0,527,0.6334002
38,91100,2,1,-2,2,0,45,528,0.9333561
38,42100,2,2,2,-2,0,0,529,0.4001294
38,18100,2,2,-2,-2,4,0,530,0.5167821
38,2100,2,2,-2,2,0,45,531,0.4000336
38,132500,1,2,2,2,4,0,532,0.433469
38,172500,1,2,2,2,4,0,533,0.4000427
38,1100,2,1,-2,2,0,0,534,0.3833642
38,48100,2,1,-2,-2,4,45,535,0.53341
38,62100,2,2,2,2,4,45,536,0.5167307
38,121500,1,2,2,2,4,45,537,0.6173589
38,69100,2,2,2,-2,0,45,538,0.9501083
38,76100,2,2,2,-2,0,45,539,0.7000431
38,31100,2,2,2,-2,0,45,540,1.4000279
38,87100,2,1,2,-2,0,45,541,0.6334034
38,131500,1,1,-2,-2,4,45,542,0.4667301
38,117100,2,2,2,2,4,0,543,0.500039
38,16100,2,2,2,2,4,45,544,0.4333871
38,70100,2,1,-2,-2,4,0,545,0.5333958
38,4100,2,1,-2,2,0,45,546,0.5347387
38,61100,2,2,2,-2,0,0,547,0.6833639
38,72100,2,2,2,-2,0,45,548,0.5666778
38,95100,2,2,2,-2,0,0,549,1.9166921
38,10100,2,2,2,2,4,45,550,0.5333146
38,101500,1,2,2,2,4,0,551,0.6333919
38,138100,2,1,-2,-2,4,45,552,0.5167133
38,109100,2,1,-2,2,0,0,553,0.5500489
38,115100,2,2,2,2,4,0,554,0.4680248
38,138500,1,1,2,-2,0,0,555,0.533456
38,68100,2,1,2,-2,0,0,556,0.5333943
38,81100,2,2,2,-2,0,0,557,0.4167056
38,18500,1,1,-2,-2,4,0,558,0.4333914
38,16100,2,1,-2,2,0,45,559,0.466637
38,132500,1,1,-2,-2,4,0,560,0.4167354
38,103500,1,2,-2,-2,4,0,561,0.4166274
38,130500,1,2,-2,-2,4,45,562,0.4834767
38,18500,1,1,-2,2,0,0,563,0.4000516
38,128500,1,2,2,2,4,45,564,0.516727
38,26500,1,1,-2,2,0,0,565,0.5666713
38,125100,2,1,2,2,4,45,566,0.4001379
38,18500,1,2,2,2,4,45,567,0.4667392
39,43100,2,2,2,-2,0,45,0,1.9833004
39,22500,1,2,2,2,4,45,1,0.8000355
39,32100,2,2,-2,2,0,0,2,2.0833336
39,4100,2,2,2,2,4,0,3,1.216639
39,146100,2,2,2,2,4,45,4,0.9834479
39,81100,2,2,-2,-2,4,45,5,0.7001892
39,5100,2,2,-2,-2,4,0,6,1.3167652
39,68500,1,2,-2,2,0,0,7,2.2167406
39,105500,1,1,2,-2,0,45,8,1.1167682
39,75100,2,2,2,-2,0,0,9,0.9333775
39,70100,2,1,-2,2,0,0,10,1.2834277
39,33500,1,2,-2,2,0,0,11,1.0167642
39,56100,2,2,-2,2,0,45,12,1.4503856
39,11100,2,2,2,2,4,45,13,0.7667878
39,65100,2,1,-2,-2,4,45,14,1.0834195
39,94100,2,2,2,-2,0,0,15,1.2000192
39,60100,2,1,-2,-2,4,45,16,0.8853117
39,35100,2,1,2,-2,0,0,17,1.1347489
39,110100,2,1,2,2,4,0,18,1.3333462
39,161100,2,1,-2,-2,4,0,19,1.0837669
39,131100,2,1,2,-2,0,0,20,0.9333201
39,35100,2,1,2,2,4,0,21,0.8000222
39,69500,1,2,-2,-2,4,0,22,0.9667024
39,76100,2,2,-2,2,0,45,23,0.8350248
39,9100,2,1,-2,-2,4,0,24,1.9666145
39,146100,2,1,-2,-2,4,45,25,0.9833905
39,17100,2,2,-2,2,0,45,26,1.9666643
39,153100,2,2,-2,-2,4,0,27,1.6833148
39,63500,1,2,2,2,4,45,28,1.6332929
39,4100,2,1,-2,2,0,45,29,1.0167289
39,8100,2,2,-2,2,0,0,30,0.9167588
39,87100,2,1,2,-2,0,45,31,0.5500383
39,142100,2,1,2,-2,0,45,32,0.5666379
39,150100,2,2,-2,-2,4,0,33,1.4166296
39,38100,2,1,-2,-2,4,0,34,1.1500186
39,108500,1,2,-2,2,0,0,35,1.2333454
39,20100,2,2,-2,2,0,0,36,0.8666393
39,37100,2,1,2,2,4,45,37,1.1000109
39,143500,1,1,2,-2,0,0,38,1.7334239
39,92500,1,2,2,-2,0,45,39,1.1333063
39,138500,1,1,2,2,4,45,40,1.0167168
39,94100,2,1,-2,-2,4,0,41,1.6167697
39,12500,1,2,2,2,4,0,42,1.2666544
39,144100,2,2,-2,-2,4,0,43,0.8000434
39,57100,2,1,-2,-2,4,45,44,0.8667777
39,65100,2,2,2,2,4,0,45,1.3020582
39,95100,2,1,2,-2,0,45,46,1.0334325
39,11100,2,2,2,-2,0,0,47,1.133392
39,111100,2,2,2,2,4,0,48,1.0833708
39,29100,2,1,-2,-2,4,45,49,0.8334605
39,37100,2,2,-2,-2,4,45,50,0.7331528
39,108500,1,1,2,-2,0,45,51,0.5501329
39,63100,2,1,2,-2,0,45,52,0.6835593
39,2100,2,1,-2,-2,4,0,53,1.2333826
39,26100,2,1,2,2,4,45,54,1.1833673
39,84100,2,1,2,-2,0,45,55,1.3000953
39,76100,2,2,-2,-2,4,45,56,0.9833908
39,132100,2,2,2,-2,0,45,57,0.8333856
39,66100,2,1,2,-2,0,45,58,1.2167079
39,18100,2,2,2,-2,0,45,59,0.8678351
39,41500,1,1,2,-2,0,0,60,1.0333634
39,131100,2,2,-2,2,0,45,61,1.5501009
39,117500,1,1,-2,2,0,45,62,0.8834157
39,132500,1,2,-2,2,0,0,63,0.8501289
39,83100,2,2,2,2,4,0,64,0.8833993
39,136100,2,2,2,2,4,45,65,0.7667593
39,134100,2,1,2,-2,0,0,66,1.18336
39,47100,2,1,-2,2,0,45,67,0.8001272
39,9100,2,2,2,2,4,0,68,0.8500276
39,22500,1,1,-2,2,0,0,69,2.1334058
39,138500,1,2,-2,2,0,45,70,0.93413
39,27100,2,1,-2,-2,4,0,71,1.0850288
39,131100,2,1,2,2,4,45,72,0.7001055
39,11100,2,1,-2,2,0,0,73,0.8500187
39,63500,1,1,-2,-2,4,45,74,0.7500366
39,109100,2,1,-2,2,0,0,75,0.7520682
39,55100,2,2,2,2,4,45,76,0.7333618
39,138100,2,1,2,-2,0,45,77,0.7500182
39,143100,2,2,2,-2,0,45,78,0.8667836
39,58100,2,2,-2,-2,4,45,79,0.9001181
39,72100,2,2,2,2,4,45,80,0.6834516
39,31500,1,1,-2,2,0,0,81,1.2001151
39,42100,2,1,2,-2,0,45,82,0.9499707
39,70100,2,2,2,-2,0,45,83,0.75195
39,84100,2,1,2,2,4,45,84,0.9001139
39,26500,1,1,2,2,4,45,85,0.9342704
39,138500,1,1,2,-2,0,45,86,0.7667152
39,18100,2,1,-2,-2,4,0,87,0.9666766
39,58100,2,1,2,-2,0,0,88,0.7334507
39,29500,1,1,2,2,4,0,89,0.8833988
39,61100,2,1,2,2,4,0,90,0.7334118
39,121100,2,1,-2,2,0,45,91,0.6834041
39,105100,2,2,2,2,4,45,92,0.6333586
39,60100,2,2,2,-2,0,0,93,0.5834008
39,38100,2,2,2,-2,0,0,94,1.4999968
39,70100,2,2,2,2,4,45,95,0.6000424
39,113100,2,1,2,2,4,0,96,0.8334103
39,30100,2,2,-2,2,0,0,97,1.4500282
39,95100,2,2,-2,2,0,0,98,0.7166794
39,52100,2,1,2,2,4,0,99,0.6500369
39,142100,2,2,-2,2,0,45,100,0.6500387
39,36100,2,2,2,2,4,0,101,1.6000181
39,124100,2,2,2,-2,0,45,102,1.2667484
39,111100,2,2,2,-2,0,0,103,1.1666971
39,100100,2,1,-2,2,0,0,104,1.4167626
39,27100,2,2,2,2,4,0,105,1.6834314
39,69100,2,2,-2,-2,4,45,106,0.7179698
39,140500,1,2,2,-2,0,45,107,0.9501226
39,101500,1,1,2,-2,0,0,108,0.9333417
39,10100,2,1,2,-2,0,0,109,1.3834492
39,126100,2,1,-2,-2,4,45,110,0.9500284
39,13100,2,1,2,-2,0,0,111,0.9833694
39,158100,2,1,2,2,4,0,112,1.3166829
39,37100,2,1,2,-2,0,0,113,1.0679147
39,45100,2,1,2,2,4,45,114,0.6674414
39,123500,1,1,2,2,4,45,115,1.5000347
39,79100,2,1,2,-2,0,0,116,0.6167404
39,117100,2,1,-2,-2,4,0,117,1.1333206
39,31500,1,2,2,2,4,0,118,1.3500121
39,4500,1,2,-2,-2,4,45,119,1.0167416
39,125100,2,1,2,-2,0,0,120,0.700135
39,79100,2,1,2,2,4,0,121,1.0833892
39,83100,2,1,-2,2,0,45,122,0.5838412
39,81100,2,1,2,-2,0,45,123,1.8000941
39,125100,2,1,2,2,4,0,124,1.1333878
39,28100,2,2,-2,2,0,45,125,1.1166677
39,143500,1,2,-2,2,0,0,126,2.000013
39,143100,2,1,-2,2,0,45,127,1.0001757
39,76100,2,1,2,2,4,0,128,0.8673492
39,13100,2,2,-2,-2,4,0,129,1.3665997
39,2100,2,2,2,-2,0,0,130,0.7001047
39,150100,2,1,2,-2,0,0,131,1.0667667
39,125500,1,1,-2,-2,4,0,132,1.1514919
39,92500,1,1,-2,-2,4,0,133,0.8167232
39,113100,2,2,-2,-2,4,0,134,1.0333884
39,28100,2,1,2,2,4,0,135,1.100136
39,32100,2,1,2,2,4,0,136,0.6833486
39,61100,2,1,2,-2,0,45,137,1.0001219
39,113100,2,1,2,-2,0,45,138,0.7499951
39,128500,1,1,2,-2,0,0,139,1.483326
39,157100,2,2,2,2,4,0,140,1.0667707
39,141100,2,1,-2,2,0,45,141,0.7500426
39,86100,2,2,2,-2,0,45,142,0.616728
39,32100,2,1,2,-2,0,0,143,0.6501053
39,8100,2,1,2,-2,0,0,144,1.4332949
39,115100,2,1,-2,-2,4,0,145,0.7000398
39,77100,2,1,-2,2,0,0,146,1.2334406
39,121100,2,1,-2,-2,4,0,147,1.033417
39,31100,2,2,2,2,4,45,148,1.5333814
39,36100,2,2,2,-2,0,45,149,0.9667949
39,121500,1,2,-2,2,0,0,150,0.8166936
39,130500,1,2,-2,-2,4,0,151,1.1000149
39,79100,2,2,-2,-2,4,0,152,0.8499728
39,106100,2,2,-2,-2,4,45,153,1.2836289
39,29100,2,2,2,-2,0,45,154,1.3499448
39,69100,2,1,2,2,4,0,155,0.5833537
39,45100,2,2,-2,2,0,45,156,0.7000428
39,52100,2,2,-2,-2,4,0,157,0.7333801
39,173500,1,1,2,-2,0,0,158,1.0000061
39,158100,2,2,-2,2,0,0,159,1.2166911
39,105500,1,2,-2,2,0,0,160,0.5843684
39,26500,1,2,-2,2,0,0,161,0.6000497
39,9100,2,2,2,-2,0,45,162,0.7333718
39,20100,2,1,2,2,4,0,163,1.1014073
39,162100,2,1,2,2,4,0,164,0.9166986
39,43100,2,1,-2,2,0,45,165,0.6501588
39,22100,2,2,2,-2,0,45,166,0.6001219
39,116100,2,1,2,-2,0,0,167,0.9500206
39,172500,1,1,-2,2,0,45,168,0.983407
39,7100,2,2,2,2,4,0,169,0.8667749
39,113100,2,2,-2,2,0,0,170,1.1167776
39,62100,2,1,-2,-2,4,0,171,1.0001023
39,43100,2,2,2,2,4,45,172,1.083439
39,33100,2,1,-2,-2,4,45,173,0.8000284
39,22500,1,1,-2,-2,4,45,174,0.8667024
39,69500,1,1,2,-2,0,0,175,0.9334099
39,117100,2,2,2,2,4,0,176,1.1334104
39,31100,2,1,-2,2,0,45,177,0.7667105
39,157100,2,1,-2,2,0,0,178,0.7500078
39,61100,2,2,-2,2,0,45,179,1.1500649
39,107100,2,1,-2,-2,4,45,180,0.950009
39,93100,2,1,2,-2,0,0,181,0.8185193
39,96100,2,2,2,2,4,45,182,0.9667542
39,103500,1,2,-2,2,0,45,183,0.9343031
39,3100,2,2,-2,2,0,45,184,0.6333884
39,10100,2,2,-2,-2,4,45,185,1.1333434
39,143500,1,1,2,2,4,45,186,0.7001203
39,22500,1,2,2,-2,0,45,187,0.7001264
39,18100,2,1,-2,2,0,45,188,0.7500388
39,109100,2,2,2,-2,0,45,189,0.6185003
39,162100,2,2,-2,2,0,0,190,0.5180581
39,125500,1,2,2,2,4,0,191,0.4667864
39,125500,1,1,-2,2,0,45,192,0.6667121
39,152100,2,1,-2,-2,4,45,193,0.4667307
39,143500,1,2,-2,-2,4,0,194,0.6833896
39,125100,2,2,-2,-2,4,45,195,0.5667858
39,132100,2,1,-2,-2,4,0,196,0.9167054
39,103500,1,1,2,2,4,0,197,0.7001107
39,75100,2,2,2,2,4,0,198,0.61678
39,75100,2,1,-2,2,0,0,199,0.6168009
39,101500,1,2,-2,-2,4,45,200,0.7333291
39,132100,2,1,-2,2,0,0,201,0.5343777
39,7100,2,1,-2,2,0,45,202,0.850102
39,79100,2,2,-2,2,0,0,203,0.7666662
39,35100,2,2,-2,2,0,45,204,0.8834022
39,96100,2,1,-2,-2,4,0,205,0.5668013
39,18500,1,2,-2,-2,4,45,206,0.533414
39,33500,1,1,2,2,4,45,207,0.7333298
39,83100,2,1,-2,-2,4,0,208,0.566765
39,71100,2,1,2,-2,0,0,209,0.9334017
39,110100,2,2,-2,2,0,0,210,0.6334107
39,140500,1,2,2,2,4,0,211,0.6167521
39,30100,2,1,2,2,4,45,212,0.6001169
39,13100,2,1,2,2,4,0,213,1.3017977
39,25100,2,1,-2,-2,4,0,214,0.6667914
39,101100,2,1,2,2,4,45,215,0.4167899
39,61100,2,2,-2,-2,4,0,216,0.6000185
39,120100,2,2,-2,-2,4,45,217,0.7499513
39,58100,2,2,-2,2,0,0,218,0.5667252
39,42100,2,1,2,2,4,0,219,0.5667082
39,17100,2,1,2,2,4,0,220,0.5166552
39,16100,2,2,2,-2,0,45,221,0.5001076
39,130500,1,2,-2,2,0,45,222,0.5667852
39,128500,1,1,2,2,4,45,223,0.583378
39,47100,2,1,-2,-2,4,45,224,0.6833914
39,123500,1,1,2,-2,0,45,225,0.6338312
39,131100,2,2,-2,-2,4,0,226,0.6167148
39,31100,2,2,2,-2,0,0,227,1.0167709
39,23100,2,1,2,-2,0,0,228,1.4334438
39,26100,2,1,2,-2,0,0,229,0.633377
39,121500,1,2,-2,-2,4,45,230,0.7333654
39,105100,2,2,2,-2,0,0,231,0.583427
39,21500,1,2,-2,2,0,0,232,0.5833648
39,66100,2,2,-2,2,0,45,233,0.6000693
39,140500,1,1,-2,-2,4,45,234,0.5667979
39,26100,2,2,-2,2,0,0,235,0.5500896
39,138100,2,1,2,2,4,45,236,0.5834323
39,106100,2,1,2,-2,0,0,237,0.7001469
39,29100,2,2,2,2,4,45,238,0.4834098
39,120100,2,2,-2,2,0,45,239,0.5187105
39,121100,2,2,2,2,4,45,240,0.4855437
39,77100,2,2,2,-2,0,45,241,0.6017683
39,69500,1,2,-2,2,0,0,242,0.5353699
39,56100,2,1,2,-2,0,45,243,0.4666718
39,29100,2,1,-2,2,0,45,244,0.3834216
39,95100,2,1,2,2,4,0,245,1.2500417
39,60100,2,1,-2,2,0,0,246,0.566648
39,161100,2,1,-2,2,0,0,247,0.650231
39,2100,2,2,2,2,4,45,248,0.5834147
39,129100,2,1,-2,-2,4,45,249,0.6348396
39,4500,1,1,2,2,4,0,250,0.6500429
39,13100,2,2,-2,2,0,45,251,0.8167493
39,30100,2,2,-2,-2,4,45,252,0.6000492
39,108500,1,2,-2,-2,4,45,253,0.5500239
39,107100,2,2,2,2,4,0,254,0.5833676
39,92500,1,1,-2,2,0,45,255,0.6667036
39,27100,2,2,2,-2,0,0,256,0.6334799
39,101100,2,2,-2,2,0,0,257,1.0000069
39,23100,2,1,2,2,4,45,258,0.6667228
39,71100,2,2,-2,-2,4,45,259,0.6001257
39,121500,1,1,2,2,4,0,260,0.6167663
39,38100,2,2,2,2,4,45,261,0.5500394
39,11100,2,1,-2,-2,4,45,262,0.8518283
39,161100,2,2,2,-2,0,0,263,1.0001128
39,62100,2,2,2,-2,0,45,264,1.5501072
39,22100,2,1,-2,2,0,45,265,0.8000504
39,141500,1,2,-2,-2,4,0,266,0.4836904
39,4100,2,2,2,-2,0,45,267,0.5000211
39,98100,2,2,-2,2,0,45,268,0.6834034
39,49100,2,2,2,-2,0,0,269,0.4852737
39,28100,2,1,2,-2,0,0,270,0.6834106
39,20100,2,1,2,-2,0,0,271,0.9500429
39,103500,1,1,2,-2,0,45,272,0.5167923
39,93100,2,2,-2,2,0,45,273,0.5346495
39,94100,2,2,2,2,4,45,274,0.5500269
39,131500,1,1,-2,2,0,0,275,0.7000502
39,105100,2,1,-2,2,0,45,276,1.5001074
39,127100,2,1,2,-2,0,45,277,0.6500245
39,63500,1,2,2,-2,0,0,278,0.683389
39,108100,2,2,-2,-2,4,0,279,0.8834375
39,86100,2,1,-2,2,0,45,280,0.6500944
39,3100,2,2,-2,-2,4,45,281,1.1667776
39,87100,2,2,-2,2,0,0,282,0.6834477
39,41100,2,2,2,2,4,0,283,0.7499621
39,31100,2,1,-2,-2,4,0,284,0.7000222
39,7100,2,2,2,-2,0,0,285,0.5833885
39,29500,1,2,-2,-2,4,45,286,0.6167994
39,68100,2,1,-2,2,0,0,287,0.5834611
39,141500,1,1,2,2,4,0,288,0.5500231
39,132500,1,1,2,2,4,45,289,0.6000322
39,108100,2,1,2,2,4,0,290,0.8500331
39,162100,2,2,-2,-2,4,45,291,0.6833796
39,10100,2,2,-2,2,0,0,292,0.6334707
39,31500,1,2,2,-2,0,0,293,0.7667378
39,153100,2,1,2,-2,0,0,294,0.5834052
39,22100,2,2,2,2,4,45,295,0.584577
39,109100,2,1,-2,-2,4,0,296,0.4001204
39,91100,2,1,-2,-2,4,45,297,0.6500348
39,72100,2,1,-2,2,0,0,298,0.5834087
39,141500,1,2,-2,2,0,0,299,0.4833982
39,65100,2,1,-2,2,0,0,300,0.5501172
39,131500,1,2,2,2,4,0,301,0.6666205
39,28100,2,2,-2,-2,4,0,302,0.5501295
39,122100,2,1,2,2,4,45,303,0.55002
39,40100,2,2,-2,-2,4,45,304,0.7667014
39,94100,2,1,-2,2,0,0,305,0.6334373
39,116100,2,2,-2,2,0,0,306,0.416629
39,68500,1,1,2,2,4,45,307,0.5670662
39,104500,1,2,2,2,4,0,308,0.599972
39,10100,2,1,2,2,4,45,309,0.4667527
39,91100,2,2,2,-2,0,0,310,0.966793
39,81100,2,2,-2,2,0,45,311,0.7501127
39,158100,2,2,-2,-2,4,0,312,0.6500297
39,144100,2,1,2,-2,0,45,313,0.8500448
39,125100,2,2,-2,2,0,45,314,0.8333741
39,152100,2,2,2,2,4,45,315,0.6333527
39,131500,1,1,-2,-2,4,45,316,0.60013
39,48100,2,2,-2,-2,4,45,317,0.6167949
39,66100,2,2,-2,-2,4,45,318,0.6833776
39,107100,2,1,-2,2,0,45,319,0.7167517
39,101100,2,1,2,-2,0,0,320,0.6167381
39,47100,2,2,2,-2,0,45,321,0.8167489
39,104500,1,2,2,-2,0,45,322,0.8000257
39,70100,2,1,-2,-2,4,45,323,0.5500656
39,116100,2,1,2,2,4,45,324,0.6166428
39,130500,1,1,2,2,4,45,325,0.5166444
39,68500,1,1,2,-2,0,0,326,0.5834008
39,87100,2,2,-2,-2,4,0,327,0.6858145
39,68500,1,2,-2,-2,4,0,328,0.6000697
39,153100,2,1,2,2,4,45,329,0.6167347
39,17100,2,1,2,-2,0,45,330,0.983396
39,91100,2,2,2,2,4,0,331,0.616697
39,173500,1,1,2,2,4,45,332,0.6839373
39,55100,2,2,2,-2,0,0,333,1.000106
39,16100,2,2,2,2,4,0,334,0.5334063
39,93100,2,2,-2,-2,4,45,335,0.6166991
39,42100,2,2,-2,2,0,0,336,0.6167715
39,36100,2,1,-2,-2,4,45,337,0.9334228
39,132100,2,2,2,2,4,0,338,0.5667855
39,117100,2,2,2,-2,0,0,339,0.7845627
39,63100,2,1,2,2,4,45,340,0.5500354
39,41500,1,2,-2,-2,4,0,341,0.7167767
39,128500,1,2,-2,2,0,45,342,1.0167878
39,136100,2,2,2,-2,0,45,343,0.7334158
39,117500,1,1,-2,-2,4,45,344,0.550037
39,126100,2,2,2,2,4,45,345,0.6500924
39,172500,1,2,2,-2,0,45,346,1.4666971
39,141100,2,2,2,2,4,0,347,1.0679626
39,73100,2,1,2,-2,0,0,348,0.7177087
39,111100,2,1,-2,2,0,0,349,0.9668702
39,125500,1,2,2,-2,0,0,350,0.9167267
39,56100,2,1,2,2,4,45,351,0.5833708
39,87100,2,1,2,2,4,0,352,1.0844222
39,4500,1,2,-2,2,0,45,353,0.8834045
39,1100,2,1,2,-2,0,0,354,0.7182387
39,5100,2,1,2,-2,0,0,355,0.6667726
39,12500,1,1,-2,-2,4,45,356,0.6166251
39,20100,2,2,-2,-2,4,45,357,0.8177504
39,7100,2,1,-2,-2,4,45,358,0.5333725
39,8100,2,2,-2,-2,4,45,359,0.6500847
39,84100,2,2,-2,-2,4,45,360,0.500134
39,57100,2,2,2,2,4,45,361,0.5667569
39,140500,1,1,-2,2,0,0,362,0.616773
39,63500,1,1,-2,2,0,45,363,0.4834096
39,144100,2,2,-2,2,0,45,364,1.2833798
39,126100,2,2,2,-2,0,0,365,0.7833949
39,52100,2,1,2,-2,0,45,366,0.6667681
39,80100,2,1,-2,-2,4,45,367,0.76678
39,146100,2,2,2,-2,0,0,368,0.4834153
39,31500,1,1,-2,-2,4,45,369,0.6666495
39,108500,1,1,2,2,4,45,370,0.6499886
39,36100,2,1,-2,2,0,45,371,0.4334291
39,49100,2,1,-2,-2,4,45,372,0.7666914
39,142100,2,2,-2,-2,4,45,373,0.5334339
39,91100,2,1,-2,2,0,45,374,1.4166718
39,48100,2,2,-2,2,0,45,375,0.7333666
39,128500,1,2,-2,-2,4,0,376,1.0167193
39,71100,2,2,-2,2,0,45,377,0.6333623
39,121100,2,2,2,-2,0,0,378,0.9166361
39,66100,2,1,2,2,4,0,379,0.8001734
39,106100,2,1,2,2,4,45,380,1.1333491
39,122100,2,2,-2,-2,4,0,381,0.71845
39,132500,1,2,-2,-2,4,0,382,0.6500533
39,105500,1,2,-2,-2,4,0,383,0.483356
39,40100,2,2,-2,2,0,0,384,0.4834605
39,86100,2,1,-2,-2,4,45,385,0.7334565
39,104500,1,1,-2,2,0,45,386,1.1667332
39,12500,1,1,-2,2,0,0,387,0.6167274
39,40100,2,1,2,-2,0,0,388,1.9833577
39,109100,2,2,2,2,4,0,389,0.6000166
39,162100,2,1,2,-2,0,45,390,0.6333827
39,69100,2,1,2,-2,0,0,391,0.5833651
39,41100,2,1,-2,-2,4,0,392,0.6000187
39,134100,2,2,-2,-2,4,0,393,0.5511475
39,150100,2,2,-2,2,0,45,394,0.5175368
39,33100,2,2,2,2,4,0,395,0.6685101
39,23100,2,2,-2,2,0,0,396,1.2017091
39,81100,2,1,2,2,4,45,397,0.583367
39,25100,2,1,-2,2,0,0,398,0.6333934
39,117500,1,2,2,2,4,45,399,0.416721
39,57100,2,2,2,-2,0,45,400,0.9167578
39,80100,2,2,2,-2,0,45,401,0.4333712
39,56100,2,2,-2,-2,4,0,402,0.3680902
39,16100,2,1,-2,2,0,45,403,0.86679
39,41500,1,2,-2,2,0,45,404,1.0500294
39,76100,2,1,2,-2,0,45,405,0.6167937
39,127100,2,1,2,2,4,0,406,0.6333742
39,100100,2,2,2,-2,0,0,407,1.1180553
39,100100,2,1,-2,-2,4,0,408,2.4500969
39,38100,2,1,-2,2,0,0,409,0.9333772
39,42100,2,2,-2,-2,4,0,410,2.184208
39,129100,2,2,2,2,4,45,411,0.8833997
39,80100,2,1,-2,2,0,45,412,0.8666713
39,21500,1,2,-2,-2,4,0,413,0.900054
39,26500,1,1,2,-2,0,45,414,0.7167059
39,30100,2,1,2,-2,0,45,415,0.6834108
39,98100,2,2,-2,-2,4,0,416,1.5000906
39,110100,2,1,2,-2,0,45,417,1.1999974
39,37100,2,2,-2,2,0,0,418,0.6168236
39,43100,2,1,-2,-2,4,45,419,1.0667355
39,60100,2,2,2,2,4,0,420,1.0500583
39,47100,2,2,2,2,4,0,421,1.016779
39,73100,2,1,2,2,4,45,422,0.6167965
39,93100,2,1,2,2,4,0,423,0.9336621
39,161100,2,2,2,2,4,0,424,0.666696
39,65100,2,2,2,-2,0,0,425,1.2834075
39,8100,2,1,2,2,4,0,426,1.0167533
39,18500,1,1,2,-2,0,45,427,0.7334086
39,68100,2,1,-2,-2,4,45,428,0.8849806
39,83100,2,2,2,-2,0,0,429,0.635369
39,127100,2,2,-2,2,0,45,430,0.6834443
39,115100,2,2,2,2,4,0,431,1.250104
39,134100,2,1,2,2,4,0,432,0.650048
39,143100,2,2,2,2,4,0,433,0.4999934
39,136100,2,1,-2,-2,4,0,434,0.4833692
39,1100,2,2,-2,-2,4,0,435,0.4167
39,33500,1,1,2,-2,0,45,436,0.5167299
39,122100,2,1,2,-2,0,0,437,0.7001163
39,120100,2,1,2,2,4,45,438,0.6832956
39,116100,2,2,-2,-2,4,0,439,0.583375
39,86100,2,2,2,2,4,0,440,0.6333741
39,22100,2,1,-2,-2,4,45,441,0.5501368
39,142100,2,1,2,2,4,0,442,1.5165927
39,173500,1,2,-2,-2,4,45,443,0.7166924
39,117500,1,2,2,-2,0,0,444,0.7167588
39,117100,2,1,-2,2,0,0,445,1.2333695
39,101500,1,1,2,2,4,45,446,0.7667921
39,49100,2,1,-2,2,0,0,447,0.7834309
39,55100,2,1,-2,2,0,0,448,1.0834102
39,124100,2,1,-2,-2,4,0,449,0.5666511
39,5100,2,1,2,2,4,45,450,0.6334948
39,141500,1,1,2,-2,0,45,451,0.5666556
39,63100,2,2,-2,-2,4,45,452,0.5834097
39,123500,1,2,-2,-2,4,45,453,0.5168242
39,101100,2,2,-2,-2,4,0,454,0.9333132
39,105500,1,1,2,2,4,0,455,0.5334694
39,141100,2,1,-2,-2,4,45,456,0.5667309
39,100100,2,2,2,2,4,45,457,0.6167087
39,152100,2,2,2,-2,0,45,458,0.7334088
39,98100,2,1,2,2,4,45,459,0.7333525
39,29500,1,1,2,-2,0,0,460,0.6166426
39,96100,2,1,-2,2,0,0,461,0.7166995
39,3100,2,1,2,-2,0,45,462,0.6000485
39,152100,2,1,-2,2,0,0,463,0.7667771
39,95100,2,2,-2,-2,4,0,464,0.667885
39,33500,1,2,-2,-2,4,0,465,0.7167762
39,104500,1,1,-2,-2,4,45,466,0.5667847
39,138500,1,2,-2,-2,4,45,467,0.6334101
39,84100,2,2,-2,2,0,0,468,0.3834383
39,132500,1,1,2,-2,0,45,469,0.5333688
39,172500,1,1,-2,-2,4,45,470,0.6833589
39,124100,2,1,-2,2,0,45,471,0.4833984
39,73100,2,2,-2,-2,4,45,472,0.7347331
39,48100,2,1,2,2,4,45,473,0.6501122
39,101500,1,2,-2,2,0,45,474,0.7833248
39,96100,2,2,2,-2,0,45,475,0.6001316
39,5100,2,2,-2,2,0,45,476,0.633346
39,41500,1,1,2,2,4,45,477,0.5166965
39,144100,2,1,2,2,4,45,478,0.5167403
39,45100,2,1,2,-2,0,45,479,0.4833711
39,110100,2,2,-2,-2,4,45,480,0.5000692
39,68100,2,2,2,-2,0,45,481,0.5001262
39,124100,2,2,2,2,4,0,482,0.6333639
39,35100,2,2,-2,-2,4,45,483,0.5167391
39,49100,2,2,2,2,4,0,484,0.8006537
39,130500,1,1,2,-2,0,0,485,0.6667984
39,27100,2,1,-2,2,0,45,486,1.4166657
39,172500,1,2,2,2,4,45,487,0.5666404
39,52100,2,2,-2,2,0,0,488,0.7166793
39,17100,2,2,-2,-2,4,0,489,1.2334862
39,4100,2,1,-2,-2,4,45,490,0.6500532
39,1100,2,1,2,2,4,45,491,0.9026363
39,25100,2,2,2,2,4,0,492,0.6000463
39,58100,2,1,2,2,4,45,493,0.9334399
39,150100,2,1,2,2,4,45,494,0.6347773
39,9100,2,1,-2,2,0,45,495,0.5999982
39,106100,2,2,-2,2,0,45,496,0.600054
39,40100,2,1,2,2,4,0,497,0.7833929
39,138100,2,2,-2,2,0,0,498,0.8999676
39,77100,2,1,-2,-2,4,45,499,0.6167783
39,108100,2,2,-2,2,0,0,500,1.4333539
39,3100,2,1,2,2,4,0,501,0.7833806
39,18500,1,2,-2,2,0,45,502,0.616704
39,122100,2,2,-2,2,0,0,503,0.9166728
39,69100,2,2,-2,2,0,45,504,0.7167411
39,120100,2,1,2,-2,0,0,505,1.9500376
39,25100,2,2,2,-2,0,0,506,2.002545
39,153100,2,2,-2,2,0,0,507,0.5689384
39,157100,2,2,2,-2,0,45,508,0.6001276
39,26100,2,2,-2,-2,4,0,509,0.6167619
39,41100,2,2,2,-2,0,45,510,0.5179188
39,115100,2,2,2,-2,0,0,511,0.666782
39,158100,2,1,2,-2,0,45,512,0.4667211
39,77100,2,2,2,2,4,0,513,0.683427
39,33100,2,1,-2,2,0,45,514,0.7500246
39,157100,2,1,-2,-2,4,45,515,0.6501201
39,115100,2,1,-2,2,0,45,516,1.3847002
39,57100,2,1,-2,2,0,45,517,0.583354
39,103500,1,2,-2,-2,4,0,518,0.7001231
39,72100,2,2,2,-2,0,45,519,0.9167848
39,134100,2,2,-2,2,0,45,520,0.9833803
39,92500,1,2,2,2,4,0,521,1.0500512
39,62100,2,1,-2,2,0,0,522,0.7000264
39,2100,2,1,-2,2,0,0,523,0.700039
39,127100,2,2,-2,-2,4,45,524,0.6834444
39,21500,1,1,2,2,4,45,525,0.7167415
39,111100,2,1,-2,-2,4,0,526,1.3167826
39,23100,2,2,-2,-2,4,45,527,0.6684258
39,12500,1,2,2,-2,0,0,528,2.4833333
39,75100,2,1,-2,-2,4,45,529,0.6167079
39,73100,2,2,-2,2,0,0,530,0.4834601
39,18100,2,2,2,2,4,45,531,0.5834233
39,71100,2,1,2,2,4,45,532,0.733388
39,108100,2,1,2,-2,0,0,533,0.65013
39,105100,2,1,-2,-2,4,0,534,0.6167006
39,16100,2,1,-2,-2,4,0,535,1.1166897
39,62100,2,2,2,2,4,0,536,0.5667019
39,72100,2,1,-2,-2,4,45,537,0.4835799
39,18500,1,1,2,2,4,0,538,0.8167466
39,55100,2,1,-2,-2,4,0,539,0.53346
39,129100,2,1,-2,2,0,0,540,0.6358927
39,80100,2,2,2,2,4,45,541,0.6000205
39,121500,1,1,2,-2,0,0,542,0.733362
39,136100,2,1,-2,2,0,0,543,0.6166404
39,33100,2,2,2,-2,0,0,544,0.7666361
39,98100,2,1,2,-2,0,0,545,0.633323
39,45100,2,2,-2,-2,4,0,546,0.5166448
39,126100,2,1,-2,2,0,0,547,0.7000823
39,48100,2,1,2,-2,0,45,548,0.7500687
39,41100,2,1,-2,2,0,45,549,1.0001197
39,4500,1,1,2,-2,0,45,550,1.4834348
39,143100,2,1,-2,-2,4,45,551,0.666695
39,32100,2,2,-2,-2,4,0,552,0.9834005
39,123500,1,2,-2,2,0,0,553,1.4666952
39,138100,2,2,-2,-2,4,45,554,0.7000355
39,29500,1,2,-2,2,0,45,555,0.8167798
39,1100,2,2,-2,2,0,45,556,0.5166487
39,21500,1,1,2,-2,0,45,557,0.6167539
39,146100,2,1,-2,2,0,45,558,0.8000819
39,69500,1,1,2,2,4,45,559,1.1166857
39,141100,2,2,2,-2,0,45,560,0.550133
39,63100,2,2,-2,2,0,0,561,1.0334461
39,26500,1,2,-2,-2,4,0,562,1.2333793
39,131500,1,2,2,-2,0,45,563,0.7167149
39,173500,1,2,-2,2,0,0,564,0.6008258
39,107100,2,2,2,-2,0,45,565,0.5000303
39,68100,2,2,2,2,4,45,566,0.6667154
39,129100,2,2,2,-2,0,0,567,0.6167058
40,128500,1,2,2,2,4,0,0,0.8667777
40,115100,2,1,-2,2,0,0,1,0.4500071
40,52100,2,2,2,2,4,45,2,0.5166367
40,91100,2,2,2,2,4,0,3,0.4333639
40,63100,2,1,2,-2,0,0,4,0.6001247
40,143100,2,2,2,-2,0,0,5,0.5000267
40,130500,1,1,2,2,4,0,6,0.484853
40,103500,1,1,2,2,4,0,7,0.4007039
40,150100,2,1,-2,2,0,45,8,0.5167017
40,105100,2,1,2,2,4,45,9,0.5333444
40,101500,1,1,-2,2,0,45,10,0.5848369
40,153100,2,1,-2,-2,4,45,11,0.4848924
40,106100,2,1,-2,2,0,0,12,0.5500289
40,92500,1,2,2,-2,0,0,13,0.5833556
40,157100,2,1,-2,-2,4,0,14,0.5666957
40,116100,2,1,2,-2,0,45,15,0.7001256
40,71100,2,2,-2,2,0,45,16,0.516813
40,18100,2,1,2,2,4,45,17,0.6000341
40,81100,2,1,-2,-2,4,0,18,0.4667929
40,125100,2,1,2,-2,0,0,19,0.7667459
40,132100,2,1,-2,-2,4,0,20,0.4500512
40,52100,2,2,2,-2,0,45,21,0.6167731
40,22500,1,2,2,-2,0,45,22,0.5666508
40,116100,2,2,-2,2,0,0,23,0.3834132
40,42100,2,2,2,-2,0,0,24,0.4834108
40,2100,2,1,2,2,4,45,25,0.400706
40,77100,2,2,2,-2,0,0,26,0.6000887
40,105500,1,1,-2,2,0,0,27,0.8184772
40,47100,2,2,2,-2,0,0,28,0.633387
40,28100,2,1,-2,-2,4,0,29,0.4666431
40,38100,2,2,2,2,4,45,30,0.6167386
40,121500,1,2,2,-2,0,0,31,0.4833919
40,9100,2,1,2,-2,0,0,32,0.4667787
40,111100,2,1,2,-2,0,45,33,0.5001104
40,42100,2,1,-2,2,0,45,34,0.5167333
40,121100,2,1,2,-2,0,45,35,0.4999893
40,66100,2,2,2,2,4,45,36,0.4503139
40,68100,2,1,2,-2,0,45,37,0.4514925
40,18500,1,1,-2,-2,4,0,38,0.4500367
40,33500,1,2,2,2,4,0,39,0.4334433
40,20100,2,2,2,-2,0,0,40,0.5833774
40,95100,2,1,-2,2,0,0,41,0.3833483
40,132100,2,2,2,-2,0,0,42,0.4500403
40,138100,2,2,2,2,4,45,43,0.4833787
40,16100,2,2,2,2,4,45,44,0.5001274
40,121100,2,2,-2,2,0,45,45,0.5834382
40,77100,2,1,-2,-2,4,45,46,0.4501271
40,47100,2,1,-2,2,0,45,47,0.4667012
40,94100,2,2,-2,-2,4,0,48,0.4667146
40,18100,2,2,-2,2,0,0,49,0.3501303
40,132100,2,1,-2,2,0,45,50,0.4517565
40,29500,1,1,2,2,4,45,51,0.550047
40,117100,2,1,-2,2,0,0,52,0.4848378
40,150100,2,1,-2,-2,4,45,53,0.5334698
40,72100,2,1,-2,-2,4,45,54,0.5499807
40,30100,2,2,-2,-2,4,45,55,0.4672427
40,10100,2,2,2,-2,0,45,56,0.4668152
40,172500,1,2,2,-2,0,0,57,0.433409
40,94100,2,1,2,2,4,45,58,0.4334073
40,141100,2,2,-2,2,0,45,59,0.5167611
40,33500,1,1,-2,-2,4,45,60,0.4167607
40,173500,1,2,2,-2,0,0,61,0.5351878
40,1100,2,1,-2,2,0,45,62,0.5166609
40,38100,2,1,-2,-2,4,0,63,0.466722
40,157100,2,2,2,-2,0,0,64,0.5500148
40,143500,1,2,-2,-2,4,0,65,0.6166424
40,104500,1,2,2,-2,0,45,66,0.4833813
40,31100,2,1,-2,-2,4,45,67,0.4000399
40,93100,2,2,2,-2,0,45,68,0.4166519
40,128500,1,1,-2,2,0,0,69,0.7000826
40,117100,2,2,2,-2,0,45,70,0.4333855
40,28100,2,1,-2,2,0,0,71,0.4666696
40,103500,1,2,-2,-2,4,45,72,0.4000485
40,105100,2,1,2,-2,0,45,73,0.450037
40,108500,1,1,2,2,4,45,74,0.5167583
40,21500,1,2,-2,2,0,45,75,0.400027
40,61100,2,1,-2,2,0,0,76,0.4500072
40,33500,1,1,-2,2,0,0,77,0.4000492
40,108100,2,1,2,2,4,45,78,0.6333619
40,138100,2,1,-2,2,0,0,79,0.6834519
40,86100,2,1,-2,-2,4,45,80,0.6833522
40,130500,1,2,-2,-2,4,0,81,0.4167815
40,42100,2,2,2,2,4,45,82,0.4667856
40,35100,2,2,2,2,4,0,83,0.4668271
40,108500,1,2,-2,-2,4,45,84,0.6333753
40,60100,2,2,-2,2,0,45,85,0.5834106
40,29100,2,2,2,2,4,45,86,0.5518075
40,121100,2,2,-2,-2,4,0,87,0.6175741
40,87100,2,1,2,-2,0,45,88,0.6334972
40,79100,2,1,2,-2,0,0,89,0.4018378
40,33100,2,1,2,-2,0,0,90,0.4333273
40,31100,2,1,-2,2,0,0,91,0.4334303
40,100100,2,1,-2,2,0,45,92,0.4000404
40,71100,2,1,2,2,4,45,93,0.6667538
40,95100,2,2,2,2,4,45,94,0.3833915
40,3100,2,2,2,2,4,0,95,0.5002314
40,128500,1,2,2,-2,0,0,96,0.5833999
40,101500,1,1,-2,-2,4,45,97,0.4849871
40,13100,2,1,2,2,4,45,98,0.4333745
40,104500,1,1,-2,-2,4,45,99,0.4834407
40,91100,2,1,-2,2,0,45,100,0.433457
40,138500,1,2,-2,-2,4,45,101,0.4001301
40,22500,1,1,-2,2,0,45,102,0.4501016
40,22100,2,1,-2,2,0,45,103,0.4501418
40,141500,1,1,-2,-2,4,45,104,0.4500373
40,70100,2,2,2,-2,0,45,105,0.4499925
40,106100,2,1,-2,-2,4,0,106,0.4850993
40,4500,1,2,-2,2,0,0,107,0.3834814
40,21500,1,1,2,2,4,45,108,0.4166156
40,49100,2,1,2,2,4,0,109,0.6000207
40,56100,2,1,2,2,4,0,110,0.4666186
40,18100,2,1,2,-2,0,0,111,0.4166356
40,95100,2,2,2,-2,0,0,112,0.4334435
40,7100,2,1,-2,2,0,45,113,0.6167588
40,28100,2,2,2,2,4,0,114,0.5501279
40,75100,2,2,-2,-2,4,45,115,0.4500307
40,123500,1,2,-2,2,0,45,116,0.5167897
40,26100,2,1,-2,2,0,45,117,0.5000407
40,107100,2,2,2,-2,0,45,118,0.5667179
40,132100,2,2,2,2,4,0,119,0.3999745
40,17100,2,2,2,-2,0,0,120,0.6180295
40,76100,2,2,2,-2,0,45,121,0.4500374
40,29500,1,2,-2,2,0,0,122,0.6334054
40,25100,2,1,-2,2,0,0,123,0.4001425
40,122100,2,1,-2,2,0,0,124,0.4166583
40,30100,2,1,2,-2,0,0,125,0.3171488
40,9100,2,2,-2,2,0,0,126,0.5333309
40,70100,2,2,2,2,4,45,127,0.4530954
40,5100,2,1,2,2,4,45,128,0.5501277
40,143100,2,1,-2,-2,4,0,129,0.4834179
40,125100,2,2,-2,-2,4,0,130,0.5334605
40,111100,2,2,-2,-2,4,45,131,0.4834063
40,71100,2,1,2,-2,0,45,132,0.5167597
40,16100,2,1,-2,-2,4,0,133,0.5000399
40,30100,2,1,2,2,4,0,134,0.5833948
40,141500,1,2,2,2,4,0,135,0.4666523
40,127100,2,1,-2,-2,4,45,136,0.383957
40,109100,2,1,-2,2,0,0,137,0.5334149
40,26500,1,2,2,2,4,0,138,0.4833721
40,141100,2,1,2,-2,0,0,139,0.6999844
40,91100,2,1,-2,-2,4,0,140,0.3833009
40,21500,1,1,2,-2,0,0,141,0.3834258
40,2100,2,2,-2,2,0,0,142,0.3834224
40,115100,2,2,2,2,4,45,143,0.4668062
40,68500,1,2,2,-2,0,0,144,0.4500439
40,144100,2,2,-2,-2,4,45,145,0.5018305
40,127100,2,2,2,2,4,45,146,0.7000407
40,10100,2,2,2,2,4,0,147,0.4840802
40,12500,1,1,-2,2,0,45,148,0.5834477
40,27100,2,1,2,-2,0,0,149,0.4500171
40,63100,2,2,-2,2,0,0,150,0.4834114
40,83100,2,2,-2,2,0,45,151,0.4000472
40,134100,2,2,-2,2,0,45,152,0.6333412
40,172500,1,1,-2,-2,4,0,153,0.5167531
40,66100,2,1,-2,-2,4,45,154,0.4333941
40,131100,2,2,2,2,4,45,155,0.4833593
40,11100,2,2,2,-2,0,0,156,0.466776
40,71100,2,2,-2,-2,4,45,157,0.4500185
40,76100,2,1,-2,-2,4,0,158,0.5351735
40,123500,1,1,2,2,4,0,159,0.5834546
40,111100,2,1,2,2,4,0,160,0.7500935
40,33100,2,2,-2,2,0,0,161,0.3833302
40,29500,1,1,2,-2,0,0,162,0.5666659
40,100100,2,1,-2,-2,4,45,163,0.533406
40,109100,2,2,2,2,4,0,164,0.7500262
40,57100,2,1,-2,2,0,45,165,0.5833133
40,127100,2,2,2,-2,0,45,166,0.683403
40,23100,2,2,-2,2,0,0,167,0.4666427
40,122100,2,2,2,2,4,45,168,0.6334027
40,157100,2,1,-2,2,0,45,169,0.5338504
40,65100,2,1,-2,-2,4,0,170,0.500123
40,132500,1,1,-2,-2,4,45,171,0.5667697
40,2100,2,2,-2,-2,4,0,172,0.5500415
40,93100,2,1,-2,-2,4,0,173,0.5001346
40,22100,2,1,-2,-2,4,0,174,0.4834229
40,61100,2,1,-2,-2,4,0,175,0.4167853
40,27100,2,2,-2,2,0,45,176,0.5500353
40,31100,2,2,2,-2,0,0,177,0.5166239
40,76100,2,1,-2,2,0,45,178,0.5333856
40,132500,1,1,-2,2,0,45,179,0.5348528
40,152100,2,2,-2,-2,4,0,180,0.4173556
40,152100,2,2,-2,2,0,0,181,0.4833628
40,104500,1,1,-2,2,0,45,182,0.5500783
40,33100,2,2,-2,-2,4,45,183,0.5999862
40,110100,2,1,-2,2,0,45,184,0.4167848
40,138100,2,1,-2,-2,4,45,185,0.4667255
40,58100,2,2,2,2,4,0,186,0.4167835
40,101500,1,2,2,2,4,45,187,0.5001257
40,129100,2,1,2,-2,0,0,188,0.4501508
40,55100,2,2,2,-2,0,45,189,0.4667127
40,140500,1,1,-2,-2,4,0,190,0.5500596
40,20100,2,1,-2,2,0,45,191,0.4508473
40,131500,1,2,2,-2,0,0,192,0.5667439
40,57100,2,2,2,-2,0,45,193,0.4667444
40,113100,2,2,2,2,4,45,194,0.5000535
40,7100,2,2,2,2,4,45,195,0.4672129
40,73100,2,2,2,2,4,0,196,0.5500454
40,61100,2,2,2,2,4,45,197,0.6001051
40,18100,2,2,-2,-2,4,45,198,0.5500858
40,4500,1,2,-2,-2,4,0,199,0.4834625
40,101100,2,1,-2,2,0,0,200,0.5167423
40,58100,2,2,2,-2,0,45,201,0.4667552
40,81100,2,1,-2,2,0,45,202,0.5167645
40,113100,2,1,-2,2,0,45,203,0.4333828
40,11100,2,1,-2,2,0,0,204,0.5167603
40,25100,2,2,2,2,4,45,205,0.5167371
40,31100,2,2,2,2,4,0,206,0.5667282
40,123500,1,1,2,-2,0,0,207,0.6500356
40,12500,1,1,-2,-2,4,0,208,0.5179
40,55100,2,1,-2,2,0,45,209,0.5834089
40,101100,2,2,2,-2,0,0,210,0.4333887
40,111100,2,2,-2,2,0,0,211,0.4667725
40,162100,2,2,2,-2,0,45,212,0.4167481
40,41100,2,1,2,-2,0,0,213,0.5001328
40,5100,2,2,-2,2,0,45,214,0.4334675
40,73100,2,1,-2,2,0,45,215,0.4833736
40,138500,1,1,2,-2,0,45,216,0.5834543
40,96100,2,2,2,-2,0,45,217,0.4166943
40,120100,2,1,-2,-2,4,45,218,0.5667262
40,115100,2,2,2,-2,0,0,219,0.4833621
40,131100,2,2,2,-2,0,0,220,0.4667814
40,4500,1,1,2,-2,0,0,221,0.4167216
40,131100,2,1,-2,2,0,45,222,0.45006
40,41500,1,2,-2,-2,4,45,223,0.5334102
40,69100,2,1,-2,-2,4,0,224,0.5166519
40,31500,1,1,-2,2,0,0,225,0.6667697
40,126100,2,2,2,2,4,0,226,0.5833548
40,117500,1,2,2,2,4,45,227,0.4834175
40,162100,2,1,-2,-2,4,0,228,0.4834645
40,101100,2,2,2,2,4,45,229,0.5334193
40,48100,2,2,2,2,4,45,230,0.500033
40,93100,2,1,-2,2,0,45,231,0.5001293
40,18500,1,2,2,2,4,45,232,0.4167713
40,146100,2,2,2,-2,0,0,233,0.4673776
40,32100,2,2,2,2,4,0,234,0.5350815
40,138500,1,2,-2,2,0,45,235,0.53334
40,32100,2,1,-2,-2,4,0,236,0.5001367
40,5100,2,2,-2,-2,4,0,237,0.4167429
40,152100,2,1,2,2,4,0,238,0.5334383
40,69500,1,2,-2,-2,4,0,239,0.5167982
40,69500,1,1,2,2,4,0,240,0.4666678
40,87100,2,1,2,2,4,45,241,0.4333632
40,158100,2,1,2,-2,0,0,242,0.4501076
40,26100,2,1,-2,-2,4,0,243,0.4833716
40,29100,2,1,-2,2,0,0,244,0.4501253
40,22100,2,2,2,-2,0,0,245,0.4999961
40,69500,1,1,2,-2,0,0,246,0.4167832
40,161100,2,2,2,2,4,0,247,0.4499863
40,144100,2,1,2,2,4,45,248,0.4342685
40,31500,1,1,-2,-2,4,45,249,0.3999551
40,94100,2,1,2,-2,0,0,250,0.5667079
40,81100,2,2,2,2,4,0,251,0.4000367
40,28100,2,2,2,-2,0,0,252,0.4667772
40,16100,2,2,2,-2,0,45,253,0.4684999
40,58100,2,1,-2,2,0,0,254,0.5833736
40,92500,1,1,-2,2,0,0,255,0.5167899
40,70100,2,1,-2,-2,4,45,256,0.5167131
40,17100,2,2,2,2,4,45,257,0.6001293
40,121500,1,1,-2,2,0,45,258,0.5000503
40,86100,2,1,-2,2,0,45,259,0.5001276
40,125100,2,1,2,2,4,0,260,0.4667725
40,27100,2,2,-2,-2,4,45,261,0.7500548
40,86100,2,2,2,2,4,45,262,0.4667632
40,62100,2,1,-2,2,0,0,263,0.6001331
40,84100,2,1,-2,2,0,45,264,0.5667079
40,41500,1,2,-2,2,0,0,265,0.4333598
40,75100,2,1,2,-2,0,0,266,0.5500971
40,18500,1,1,-2,2,0,0,267,0.4333135
40,136100,2,2,2,2,4,45,268,0.5000232
40,21500,1,2,-2,-2,4,0,269,0.4834332
40,144100,2,1,2,-2,0,0,270,0.5000184
40,52100,2,1,-2,-2,4,0,271,0.5334599
40,13100,2,2,-2,2,0,45,272,0.4667751
40,162100,2,2,2,2,4,45,273,0.5001355
40,12500,1,2,2,-2,0,45,274,0.6000676
40,48100,2,1,-2,2,0,45,275,0.5529513
40,69100,2,2,2,-2,0,45,276,0.4666513
40,80100,2,1,-2,2,0,45,277,0.4666674
40,91100,2,2,2,-2,0,0,278,0.4833393
40,123500,1,2,-2,-2,4,0,279,0.7168036
40,172500,1,2,2,2,4,0,280,0.4167928
40,142100,2,1,-2,2,0,45,281,0.4167017
40,1100,2,2,2,2,4,0,282,0.4501107
40,134100,2,2,-2,-2,4,0,283,0.450067
40,40100,2,2,2,-2,0,0,284,0.3834106
40,117500,1,1,-2,-2,4,45,285,0.4167077
40,140500,1,2,2,-2,0,45,286,0.3667263
40,84100,2,2,2,2,4,0,287,0.4167732
40,9100,2,2,-2,-2,4,0,288,0.4667276
40,72100,2,1,-2,2,0,45,289,0.4833734
40,22100,2,2,2,2,4,0,290,0.4667386
40,87100,2,2,-2,-2,4,45,291,0.5333463
40,36100,2,2,2,-2,0,0,292,0.4666399
40,73100,2,1,-2,-2,4,45,293,0.4334099
40,66100,2,2,2,-2,0,45,294,0.5667712
40,143100,2,2,2,2,4,45,295,0.5166942
40,150100,2,2,2,2,4,0,296,0.5168027
40,126100,2,2,2,-2,0,0,297,0.5000312
40,1100,2,2,2,-2,0,45,298,0.4834231
40,138500,1,1,2,2,4,0,299,0.4500502
40,60100,2,2,-2,-2,4,0,300,0.4667216
40,101500,1,2,2,-2,0,0,301,0.4668267
40,40100,2,1,-2,-2,4,0,302,0.4360908
40,63500,1,1,-2,-2,4,45,303,0.4686106
40,38100,2,2,2,-2,0,45,304,0.5678001
40,172500,1,1,-2,2,0,0,305,0.616666
40,96100,2,1,-2,-2,4,0,306,0.4514148
40,68500,1,1,-2,-2,4,45,307,0.58343
40,128500,1,1,-2,-2,4,45,308,0.4501391
40,4100,2,2,2,2,4,45,309,0.4667637
40,127100,2,1,-2,2,0,45,310,0.451386
40,68100,2,2,-2,2,0,45,311,0.4667024
40,60100,2,1,2,-2,0,45,312,0.5000505
40,32100,2,2,2,-2,0,45,313,0.5833397
40,35100,2,1,-2,-2,4,45,314,0.4666141
40,124100,2,2,2,2,4,0,315,0.4833935
40,117100,2,2,2,2,4,45,316,0.5333758
40,36100,2,1,-2,2,0,45,317,0.6523846
40,83100,2,2,-2,-2,4,45,318,0.5000418
40,129100,2,2,-2,-2,4,0,319,0.6500341
40,3100,2,1,-2,2,0,45,320,0.7500597
40,80100,2,2,2,-2,0,0,321,0.4167181
40,96100,2,2,2,2,4,45,322,0.499977
40,56100,2,2,-2,2,0,0,323,0.6334603
40,73100,2,2,2,-2,0,45,324,0.650057
40,70100,2,1,-2,2,0,0,325,0.433406
40,110100,2,2,2,2,4,45,326,0.5333945
40,173500,1,2,2,2,4,0,327,0.4667177
40,4100,2,2,2,-2,0,45,328,0.4834656
40,107100,2,2,2,2,4,0,329,0.4333775
40,125500,1,2,2,2,4,0,330,0.5500894
40,31500,1,2,2,-2,0,45,331,0.6001345
40,13100,2,2,-2,-2,4,45,332,0.5333964
40,142100,2,2,2,2,4,45,333,0.5334098
40,117500,1,1,-2,2,0,0,334,0.4336656
40,161100,2,2,2,-2,0,45,335,0.5000855
40,125100,2,2,-2,2,0,45,336,0.4999917
40,107100,2,1,-2,2,0,45,337,0.4666754
40,68100,2,1,2,2,4,0,338,0.5166531
40,36100,2,1,-2,-2,4,45,339,0.5666397
40,26100,2,2,2,-2,0,45,340,0.4849462
40,115100,2,1,-2,-2,4,0,341,0.5167826
40,108500,1,1,2,-2,0,45,342,0.3667936
40,26500,1,2,2,-2,0,45,343,0.4833272
40,75100,2,1,2,2,4,0,344,0.5500725
40,56100,2,2,-2,-2,4,45,345,0.4334064
40,125500,1,2,2,-2,0,45,346,0.500049
40,108500,1,2,-2,2,0,45,347,0.5166948
40,126100,2,1,-2,-2,4,45,348,0.4513346
40,65100,2,1,-2,2,0,0,349,0.7167069
40,47100,2,2,2,2,4,0,350,0.3834419
40,106100,2,2,2,-2,0,0,351,0.4500486
40,117100,2,1,-2,-2,4,45,352,0.4680944
40,69500,1,2,-2,2,0,0,353,0.4834537
40,105500,1,1,-2,-2,4,45,354,0.400035
40,106100,2,2,2,2,4,45,355,0.4500626
40,131100,2,1,-2,-2,4,0,356,0.4833791
40,29500,1,2,-2,-2,4,45,357,0.4333896
40,37100,2,1,2,2,4,45,358,0.4167626
40,110100,2,1,-2,-2,4,0,359,0.5017985
40,5100,2,1,2,-2,0,45,360,0.5675754
40,103500,1,2,-2,2,0,0,361,0.4667376
40,20100,2,1,-2,-2,4,0,362,0.4833704
40,109100,2,2,2,-2,0,0,363,0.4833715
40,63100,2,2,-2,-2,4,45,364,0.4001019
40,8100,2,2,2,2,4,0,365,0.5000613
40,43100,2,2,2,-2,0,0,366,0.7833999
40,20100,2,2,2,2,4,0,367,0.4167851
40,131500,1,1,-2,-2,4,45,368,0.3667215
40,121100,2,1,2,2,4,0,369,0.6500455
40,30100,2,2,-2,2,0,0,370,0.4183422
40,63500,1,2,2,2,4,0,371,0.4667867
40,40100,2,2,2,2,4,0,372,0.4167308
40,161100,2,1,-2,2,0,0,373,0.4667404
40,92500,1,2,2,2,4,45,374,0.4834041
40,79100,2,1,2,2,4,0,375,0.4342405
40,37100,2,1,2,-2,0,0,376,0.6168242
40,100100,2,2,2,2,4,45,377,0.4333725
40,116100,2,2,-2,-2,4,45,378,0.400035
40,55100,2,2,2,2,4,45,379,0.4500578
40,121500,1,2,2,2,4,45,380,0.4666464
40,140500,1,1,-2,2,0,0,381,0.3500177
40,26500,1,1,-2,2,0,45,382,0.4334045
40,158100,2,2,-2,-2,4,0,383,0.4505937
40,158100,2,1,2,2,4,0,384,0.4833802
40,22500,1,2,2,2,4,45,385,0.5167658
40,41100,2,2,-2,2,0,0,386,0.5514137
40,103500,1,1,2,-2,0,0,387,0.5501282
40,69100,2,2,2,2,4,45,388,0.6167801
40,8100,2,1,-2,-2,4,0,389,0.533433
40,49100,2,2,-2,-2,4,0,390,0.4667178
40,10100,2,1,-2,-2,4,0,391,0.516768
40,101100,2,1,-2,-2,4,45,392,0.5000293
40,1100,2,1,-2,-2,4,0,393,0.4500333
40,144100,2,2,-2,2,0,0,394,0.5176488
40,173500,1,1,-2,-2,4,45,395,0.5000303
40,142100,2,2,2,-2,0,45,396,0.5166822
40,65100,2,2,2,2,4,0,397,0.4500774
40,134100,2,1,2,-2,0,0,398,0.550022
40,31500,1,2,2,2,4,45,399,0.4667951
40,124100,2,1,-2,-2,4,0,400,0.466785
40,35100,2,1,-2,2,0,45,401,0.4834275
40,84100,2,1,-2,-2,4,45,402,0.5166809
40,35100,2,2,2,-2,0,0,403,0.9167089
40,49100,2,2,-2,2,0,45,404,0.5333195
40,98100,2,2,-2,-2,4,0,405,0.5667671
40,72100,2,2,2,-2,0,45,406,0.6667996
40,41100,2,2,-2,-2,4,0,407,0.5500945
40,57100,2,1,-2,-2,4,45,408,0.5166986
40,52100,2,1,-2,2,0,45,409,0.4833853
40,2100,2,1,2,-2,0,45,410,0.5001285
40,131500,1,1,-2,2,0,0,411,0.4501156
40,120100,2,2,2,-2,0,0,412,0.634413
40,132500,1,2,2,2,4,0,413,0.5669125
40,79100,2,2,-2,-2,4,45,414,0.4834013
40,25100,2,1,-2,-2,4,45,415,0.4667489
40,129100,2,2,-2,2,0,0,416,0.5334113
40,80100,2,2,2,2,4,45,417,0.5334089
40,141100,2,2,-2,-2,4,45,418,0.5501104
40,86100,2,2,2,-2,0,45,419,0.650095
40,45100,2,2,-2,2,0,0,420,0.3833996
40,63500,1,2,2,-2,0,45,421,0.3669406
40,3100,2,2,2,-2,0,45,422,0.4667633
40,48100,2,2,2,-2,0,45,423,0.4167534
40,41500,1,1,2,2,4,45,424,0.4667628
40,158100,2,2,-2,2,0,0,425,0.40025
40,26500,1,1,-2,-2,4,45,426,0.4333749
40,136100,2,1,-2,-2,4,0,427,0.4000465
40,93100,2,2,2,2,4,0,428,0.4334077
40,80100,2,1,-2,-2,4,45,429,0.4334291
40,45100,2,2,-2,-2,4,45,430,0.4334615
40,104500,1,2,2,2,4,0,431,0.4167607
40,136100,2,1,-2,2,0,45,432,0.4667951
40,7100,2,2,2,-2,0,0,433,0.6167689
40,17100,2,1,-2,2,0,45,434,0.6500509
40,126100,2,1,-2,2,0,0,435,0.4333688
40,153100,2,2,2,2,4,0,436,0.5174592
40,122100,2,1,-2,-2,4,45,437,0.5501173
40,131500,1,2,2,2,4,0,438,0.5001751
40,107100,2,1,-2,-2,4,45,439,0.5334008
40,143500,1,1,2,2,4,45,440,0.5666967
40,22500,1,1,-2,-2,4,0,441,0.5667103
40,98100,2,2,-2,2,0,0,442,0.5334457
40,11100,2,1,-2,-2,4,0,443,0.4855018
40,63100,2,1,2,2,4,45,444,0.5334545
40,45100,2,1,2,2,4,45,445,0.516702
40,143100,2,1,-2,2,0,0,446,0.5667683
40,4100,2,1,-2,2,0,0,447,0.4514128
40,36100,2,2,2,2,4,0,448,0.5000877
40,29100,2,1,-2,-2,4,0,449,0.5501255
40,83100,2,1,2,2,4,45,450,0.5500641
40,146100,2,2,2,2,4,45,451,0.5501503
40,62100,2,2,2,2,4,0,452,0.5500441
40,109100,2,1,-2,-2,4,45,453,0.7833519
40,49100,2,1,2,-2,0,45,454,0.5501298
40,41100,2,1,2,2,4,0,455,0.433444
40,23100,2,1,2,2,4,45,456,0.4667347
40,173500,1,1,-2,2,0,45,457,0.4667021
40,27100,2,1,2,2,4,0,458,0.3833196
40,42100,2,1,-2,-2,4,45,459,0.4340092
40,141500,1,2,2,-2,0,0,460,0.5000359
40,116100,2,1,2,2,4,0,461,0.583371
40,141500,1,1,-2,2,0,0,462,0.4666549
40,105100,2,2,-2,-2,4,45,463,0.5171785
40,120100,2,1,-2,2,0,45,464,0.5167577
40,84100,2,2,2,-2,0,45,465,0.5001074
40,108100,2,1,2,-2,0,0,466,0.466775
40,153100,2,2,2,-2,0,0,467,0.7166235
40,95100,2,1,-2,-2,4,0,468,0.5167545
40,113100,2,2,2,-2,0,0,469,0.5167714
40,117500,1,2,2,-2,0,0,470,0.4334135
40,37100,2,2,-2,2,0,0,471,0.5003382
40,12500,1,2,2,2,4,45,472,0.5834389
40,77100,2,1,-2,2,0,45,473,0.5667737
40,10100,2,1,-2,2,0,0,474,0.6174012
40,63500,1,1,-2,2,0,0,475,0.4349818
40,3100,2,1,-2,-2,4,45,476,0.4500975
40,130500,1,2,-2,2,0,0,477,0.4334662
40,65100,2,2,2,-2,0,45,478,0.5166252
40,125500,1,1,-2,-2,4,45,479,0.416661
40,98100,2,1,2,-2,0,45,480,0.4334438
40,26100,2,2,2,2,4,45,481,0.5000183
40,23100,2,1,2,-2,0,0,482,0.3508204
40,43100,2,1,-2,-2,4,0,483,0.5000525
40,79100,2,2,-2,2,0,0,484,0.4333521
40,43100,2,1,-2,2,0,45,485,0.4333706
40,146100,2,1,-2,2,0,45,486,0.3834677
40,105100,2,2,-2,2,0,0,487,0.500022
40,92500,1,1,-2,-2,4,0,488,0.5000022
40,8100,2,2,2,-2,0,45,489,0.6000468
40,72100,2,2,2,2,4,0,490,0.417981
40,136100,2,2,2,-2,0,0,491,0.5847861
40,47100,2,1,-2,-2,4,45,492,0.4174216
40,11100,2,2,2,2,4,45,493,0.4667231
40,120100,2,2,2,2,4,45,494,0.4667698
40,96100,2,1,-2,2,0,45,495,0.5012957
40,75100,2,2,-2,2,0,45,496,0.550099
40,142100,2,1,-2,-2,4,0,497,0.4667686
40,121500,1,1,-2,-2,4,0,498,0.483305
40,62100,2,1,-2,-2,4,45,499,0.6500472
40,57100,2,2,2,2,4,0,500,0.3837122
40,105500,1,2,2,-2,0,45,501,0.4667816
40,98100,2,1,2,2,4,45,502,0.483463
40,130500,1,1,2,-2,0,0,503,0.4500595
40,25100,2,2,2,-2,0,0,504,0.4667776
40,87100,2,2,-2,2,0,0,505,0.4362716
40,141100,2,1,2,2,4,0,506,0.4833707
40,62100,2,2,2,-2,0,45,507,0.4500453
40,60100,2,1,2,2,4,0,508,0.4333885
40,41500,1,1,2,-2,0,45,509,0.4833815
40,61100,2,2,2,-2,0,0,510,0.6001266
40,37100,2,2,-2,-2,4,0,511,0.5167187
40,105500,1,2,2,2,4,45,512,0.4334462
40,68500,1,2,2,2,4,0,513,0.4667181
40,48100,2,1,-2,-2,4,0,514,0.5001304
40,100100,2,2,2,-2,0,0,515,0.5666831
40,66100,2,1,-2,2,0,0,516,0.4666973
40,69100,2,1,-2,2,0,45,517,0.4833824
40,33100,2,1,2,2,4,45,518,0.517938
40,124100,2,2,2,-2,0,45,519,0.5166922
40,56100,2,1,2,-2,0,45,520,0.3834271
40,13100,2,1,2,-2,0,0,521,0.4333741
40,4100,2,1,-2,-2,4,45,522,0.4500533
40,29100,2,2,2,-2,0,45,523,0.5188873
40,58100,2,1,-2,-2,4,0,524,0.4834042
40,4500,1,1,2,2,4,45,525,0.466735
40,153100,2,1,-2,2,0,45,526,0.4010021
40,157100,2,2,2,2,4,0,527,0.4834092
40,68500,1,1,-2,2,0,45,528,0.4666524
40,68100,2,2,-2,-2,4,0,529,0.5166451
40,77100,2,2,2,2,4,45,530,0.4667053
40,143500,1,2,-2,2,0,45,531,0.5000609
40,17100,2,1,-2,-2,4,45,532,0.4666645
40,108100,2,2,-2,2,0,0,533,0.3683917
40,76100,2,2,2,2,4,45,534,0.4667634
40,150100,2,2,2,-2,0,45,535,0.4833761
40,129100,2,1,2,2,4,0,536,0.5000251
40,110100,2,2,2,-2,0,0,537,0.6667457
40,33500,1,2,2,-2,0,0,538,0.4833532
40,8100,2,1,-2,2,0,45,539,0.5000611
40,140500,1,2,2,2,4,0,540,0.5333594
40,125500,1,1,-2,2,0,45,541,0.4833715
40,16100,2,1,-2,2,0,45,542,0.4834334
40,18500,1,2,2,-2,0,45,543,0.6334346
40,83100,2,1,2,-2,0,45,544,0.6167659
40,81100,2,2,2,-2,0,45,545,0.7000596
40,113100,2,1,-2,-2,4,0,546,0.6333923
40,134100,2,1,2,2,4,0,547,0.4334438
40,45100,2,1,2,-2,0,0,548,0.5167992
40,162100,2,1,-2,2,0,45,549,0.3668076
40,55100,2,1,-2,-2,4,45,550,0.4167327
40,23100,2,2,-2,-2,4,0,551,0.4834033
40,122100,2,2,2,-2,0,0,552,0.5000467
40,138100,2,2,2,-2,0,0,553,0.5167772
40,32100,2,1,-2,2,0,0,554,0.4667999
40,38100,2,1,-2,2,0,0,555,0.4667429
40,146100,2,1,-2,-2,4,45,556,0.466695
40,94100,2,2,-2,2,0,0,557,0.5333457
40,152100,2,1,2,-2,0,0,558,0.5999748
40,40100,2,1,-2,2,0,45,559,0.7333994
40,108100,2,2,-2,-2,4,45,560,0.3833851
40,161100,2,1,-2,-2,4,45,561,0.4334035
40,124100,2,1,-2,2,0,45,562,0.4833828
40,7100,2,1,-2,-2,4,0,563,0.4668031
40,43100,2,2,2,2,4,0,564,0.4334162
40,132500,1,2,2,-2,0,0,565,0.600103
40,9100,2,1,2,2,4,0,566,0.3667513
40,143500,1,1,2,-2,0,45,567,0.4667491
41,161100,2,2,2,2,4,0,0,0.6000644
41,27100,2,1,-2,2,0,45,1,0.4834292
41,32100,2,1,2,2,4,0,2,0.5669111
41,113100,2,1,2,-2,0,0,3,0.5334537
41,123500,1,2,-2,2,0,45,4,0.5667675
41,5100,2,1,2,-2,0,45,5,0.5847131
41,125500,1,2,2,-2,0,0,6,0.5333694
41,47100,2,2,2,2,4,0,7,0.5667576
41,132100,2,1,-2,2,0,45,8,0.6167955
41,81100,2,1,2,-2,0,45,9,0.5000454
41,143100,2,2,2,2,4,45,10,0.4167632
41,131100,2,2,-2,-2,4,45,11,0.5333955
41,4100,2,1,-2,-2,4,0,12,0.4834093
41,16100,2,2,2,2,4,45,13,0.4834056
41,66100,2,2,-2,2,0,45,14,0.4833864
41,35100,2,2,-2,-2,4,45,15,0.600041
41,79100,2,2,-2,2,0,0,16,0.4666494
41,115100,2,2,2,-2,0,0,17,0.4500408
41,41100,2,1,-2,-2,4,0,18,0.4334191
41,4100,2,1,-2,2,0,0,19,0.4834109
41,96100,2,2,2,2,4,0,20,0.5000355
41,116100,2,1,2,-2,0,45,21,0.4500471
41,22500,1,1,-2,-2,4,45,22,0.4833871
41,108100,2,1,2,2,4,0,23,0.4500301
41,138500,1,1,2,2,4,45,24,0.5332996
41,32100,2,1,2,-2,0,45,25,0.4667719
41,40100,2,2,-2,2,0,45,26,0.5500325
41,1100,2,1,2,2,4,0,27,0.4667018
41,72100,2,1,-2,2,0,0,28,0.4833739
41,10100,2,1,2,2,4,45,29,0.4666885
41,103500,1,1,2,-2,0,0,30,0.4667051
41,20100,2,1,2,2,4,0,31,0.5181314
41,48100,2,2,-2,2,0,45,32,0.5167964
41,129100,2,1,-2,-2,4,45,33,0.5167336
41,153100,2,2,-2,-2,4,45,34,0.4168052
41,12500,1,1,-2,-2,4,0,35,0.4667013
41,100100,2,2,2,2,4,0,36,0.5667012
41,79100,2,1,2,2,4,0,37,0.500123
41,131100,2,2,-2,2,0,0,38,0.450112
41,66100,2,2,-2,-2,4,0,39,0.3666555
41,1100,2,2,-2,2,0,0,40,0.5000424
41,26100,2,2,-2,-2,4,0,41,0.3833863
41,173500,1,2,-2,2,0,45,42,0.4000235
41,101500,1,2,-2,-2,4,0,43,0.4668014
41,172500,1,1,-2,2,0,0,44,0.4500328
41,23100,2,2,-2,-2,4,0,45,0.4001096
41,56100,2,2,-2,-2,4,45,46,0.4667332
41,72100,2,1,-2,-2,4,0,47,0.5666463
41,18100,2,1,-2,-2,4,45,48,0.5166348
41,33500,1,1,2,2,4,0,49,0.4172508
41,122100,2,2,-2,-2,4,0,50,0.3667658
41,17100,2,2,-2,2,0,45,51,0.4667585
41,36100,2,2,2,2,4,45,52,0.6000408
41,172500,1,1,-2,-2,4,0,53,0.5000337
41,98100,2,1,2,-2,0,45,54,0.4833531
41,66100,2,1,2,-2,0,45,55,0.4334128
41,95100,2,1,2,2,4,45,56,0.4834197
41,121100,2,1,-2,-2,4,45,57,0.5334187
41,81100,2,1,2,2,4,0,58,0.4676546
41,150100,2,2,-2,2,0,45,59,0.5834296
41,52100,2,2,-2,2,0,0,60,0.5000491
41,125100,2,1,2,2,4,0,61,0.5666058
41,57100,2,2,2,2,4,0,62,0.4666311
41,70100,2,1,-2,-2,4,45,63,0.4666334
41,124100,2,2,2,2,4,45,64,0.3834681
41,33500,1,2,-2,2,0,0,65,0.4834383
41,152100,2,2,2,-2,0,45,66,0.4667888
41,38100,2,2,2,2,4,0,67,0.5334071
41,100100,2,1,-2,2,0,45,68,0.4499916
41,153100,2,2,-2,2,0,0,69,0.5167082
41,121100,2,1,-2,2,0,45,70,0.4844886
41,73100,2,2,-2,-2,4,45,71,0.5174515
41,157100,2,2,2,2,4,0,72,0.4334638
41,16100,2,2,2,-2,0,0,73,0.4667895
41,61100,2,2,-2,-2,4,45,74,0.4667625
41,105500,1,2,-2,2,0,45,75,0.3667282
41,38100,2,1,-2,-2,4,45,76,0.4834129
41,56100,2,1,2,-2,0,45,77,0.6666997
41,33100,2,2,2,2,4,0,78,0.5000262
41,22100,2,1,-2,-2,4,0,79,0.750034
41,49100,2,1,-2,2,0,0,80,0.4343061
41,41500,1,2,-2,2,0,0,81,0.4673518
41,98100,2,1,2,2,4,45,82,0.4333438
41,4500,1,1,2,-2,0,0,83,0.4000249
41,131500,1,2,2,-2,0,45,84,0.3834077
41,87100,2,2,-2,-2,4,45,85,0.3834454
41,96100,2,1,-2,-2,4,0,86,0.5000207
41,41500,1,1,2,2,4,0,87,0.4334051
41,121100,2,2,2,-2,0,0,88,0.4666753
41,3100,2,1,2,2,4,45,89,0.4166254
41,134100,2,2,-2,-2,4,45,90,0.4667228
41,140500,1,2,2,-2,0,0,91,0.4500453
41,68100,2,1,-2,2,0,0,92,0.5003663
41,11100,2,1,-2,-2,4,0,93,0.4000203
41,91100,2,1,-2,2,0,45,94,0.4000246
41,107100,2,2,2,-2,0,45,95,0.4333652
41,58100,2,1,2,2,4,0,96,0.4000587
41,131500,1,2,2,2,4,0,97,0.5000459
41,84100,2,2,-2,2,0,45,98,0.5333815
41,30100,2,1,2,2,4,45,99,0.3832926
41,48100,2,1,2,-2,0,0,100,0.3834636
41,25100,2,2,2,-2,0,45,101,0.4000347
41,69500,1,2,-2,2,0,0,102,0.5169767
41,21500,1,2,-2,2,0,0,103,0.4667891
41,37100,2,1,2,-2,0,45,104,0.4000553
41,8100,2,2,-2,2,0,45,105,0.4667792
41,69100,2,2,-2,2,0,0,106,0.4834593
41,26500,1,1,2,2,4,45,107,0.4501227
41,27100,2,2,2,2,4,0,108,0.4681126
41,55100,2,2,2,2,4,0,109,0.5001323
41,49100,2,1,-2,-2,4,45,110,0.4501161
41,68500,1,2,-2,2,0,45,111,0.6167506
41,8100,2,1,2,-2,0,45,112,0.566753
41,60100,2,2,2,-2,0,0,113,0.5001327
41,22500,1,2,2,-2,0,0,114,0.5666915
41,69100,2,2,-2,-2,4,45,115,0.5834266
41,142100,2,1,2,2,4,45,116,0.5500611
41,43100,2,2,2,2,4,45,117,0.4000367
41,113100,2,1,2,2,4,0,118,0.4667074
41,68100,2,2,2,2,4,45,119,0.5339442
41,141500,1,2,-2,2,0,0,120,0.4500338
41,87100,2,1,2,2,4,0,121,0.5333757
41,77100,2,1,-2,-2,4,0,122,0.5666875
41,5100,2,1,2,2,4,45,123,0.416709
41,87100,2,1,2,-2,0,0,124,0.4666479
41,158100,2,1,2,-2,0,45,125,0.4500248
41,140500,1,1,-2,2,0,45,126,0.5333635
41,162100,2,1,2,2,4,0,127,0.4666337
41,123500,1,1,2,2,4,45,128,0.4666892
41,161100,2,1,-2,-2,4,0,129,0.5000321
41,121100,2,2,2,2,4,0,130,0.6166995
41,173500,1,1,2,-2,0,0,131,0.5000391
41,60100,2,2,2,2,4,45,132,0.4333375
41,36100,2,1,-2,2,0,45,133,0.4167884
41,23100,2,2,-2,2,0,45,134,0.4666864
41,43100,2,2,2,-2,0,45,135,0.4167254
41,68100,2,2,2,-2,0,0,136,0.4501063
41,52100,2,1,2,-2,0,45,137,0.5167867
41,132500,1,2,-2,2,0,45,138,0.4675923
41,153100,2,1,2,2,4,45,139,0.5166479
41,49100,2,2,2,-2,0,0,140,0.4501375
41,116100,2,2,-2,-2,4,0,141,0.433415
41,128500,1,1,2,-2,0,0,142,0.4667515
41,158100,2,1,2,2,4,0,143,0.4667204
41,117100,2,2,2,-2,0,0,144,0.4333595
41,136100,2,2,2,-2,0,45,145,0.4334079
41,136100,2,2,2,2,4,45,146,0.3667415
41,70100,2,2,2,-2,0,0,147,0.4166969
41,77100,2,1,-2,2,0,0,148,0.4667597
41,143100,2,1,-2,2,0,0,149,0.3837074
41,2100,2,1,-2,-2,4,45,150,0.4667151
41,152100,2,2,2,2,4,45,151,0.4000365
41,75100,2,2,2,2,4,0,152,0.4834243
41,142100,2,2,-2,2,0,0,153,0.5500432
41,108500,1,2,-2,-2,4,45,154,0.5167676
41,140500,1,1,-2,-2,4,45,155,0.4834231
41,152100,2,1,-2,-2,4,45,156,0.3667698
41,143500,1,1,2,2,4,0,157,0.5501262
41,36100,2,1,-2,-2,4,0,158,0.466644
41,12500,1,2,2,2,4,0,159,0.400042
41,173500,1,2,-2,-2,4,0,160,0.4167385
41,140500,1,2,2,2,4,0,161,0.4500287
41,40100,2,1,2,2,4,0,162,0.5334356
41,29500,1,1,2,-2,0,45,163,0.4666958
41,31100,2,2,2,2,4,45,164,0.4000772
41,129100,2,1,-2,2,0,0,165,0.600087
41,106100,2,2,-2,2,0,45,166,0.4334633
41,124100,2,1,-2,2,0,45,167,0.4168012
41,150100,2,2,-2,-2,4,0,168,0.4333797
41,124100,2,1,-2,-2,4,45,169,0.5002039
41,33500,1,1,2,-2,0,45,170,0.4333246
41,7100,2,1,-2,2,0,0,171,0.4667963
41,18100,2,2,2,-2,0,0,172,0.5833485
41,8100,2,2,-2,-2,4,45,173,0.4333798
41,57100,2,2,2,-2,0,45,174,0.4500298
41,105500,1,1,2,-2,0,0,175,0.5167681
41,62100,2,2,2,-2,0,45,176,0.434761
41,29100,2,2,2,2,4,45,177,0.4001355
41,36100,2,2,2,-2,0,0,178,0.4167862
41,23100,2,1,2,-2,0,45,179,0.4168077
41,29100,2,1,-2,-2,4,45,180,0.4167814
41,127100,2,1,2,2,4,45,181,0.433419
41,21500,1,1,2,2,4,45,182,0.4000502
41,95100,2,2,-2,2,0,0,183,0.4500263
41,131100,2,1,2,-2,0,45,184,0.4500692
41,117500,1,2,2,2,4,45,185,0.4851523
41,92500,1,1,-2,-2,4,45,186,0.3500655
41,13100,2,2,-2,2,0,0,187,0.4333793
41,43100,2,1,-2,-2,4,0,188,0.4500559
41,109100,2,2,2,2,4,0,189,0.5001902
41,63100,2,2,-2,2,0,0,190,0.4501257
41,95100,2,2,-2,-2,4,0,191,0.4168058
41,9100,2,2,2,-2,0,45,192,0.7333835
41,142100,2,2,-2,-2,4,0,193,0.4501328
41,57100,2,1,-2,2,0,45,194,0.4500942
41,18500,1,2,-2,-2,4,0,195,0.4500709
41,103500,1,2,-2,-2,4,0,196,0.400003
41,40100,2,1,2,-2,0,0,197,0.4334755
41,115100,2,1,-2,-2,4,45,198,0.5000422
41,98100,2,2,-2,-2,4,0,199,0.4833759
41,28100,2,1,2,2,4,45,200,0.4167648
41,91100,2,2,2,-2,0,0,201,0.566763
41,125100,2,1,2,-2,0,0,202,0.48337
41,18500,1,1,2,2,4,45,203,0.4167666
41,117500,1,1,-2,-2,4,0,204,0.383367
41,48100,2,1,2,2,4,0,205,0.4333919
41,42100,2,1,2,2,4,0,206,0.5166986
41,71100,2,1,2,2,4,45,207,0.4167228
41,130500,1,2,-2,-2,4,0,208,0.4166698
41,30100,2,2,-2,2,0,0,209,0.4667946
41,123500,1,2,-2,-2,4,45,210,0.4500292
41,68100,2,1,-2,-2,4,45,211,0.4333713
41,41500,1,2,-2,-2,4,0,212,0.4334511
41,108100,2,1,2,-2,0,45,213,0.4168229
41,141100,2,1,-2,2,0,45,214,0.383318
41,25100,2,1,-2,-2,4,0,215,0.3833861
41,132100,2,2,2,-2,0,0,216,0.3834523
41,11100,2,2,2,-2,0,45,217,0.4333464
41,56100,2,2,-2,2,0,45,218,0.4000705
41,71100,2,2,-2,-2,4,45,219,0.4668028
41,108500,1,1,2,-2,0,0,220,0.4501303
41,65100,2,2,2,2,4,0,221,0.5001553
41,4500,1,2,-2,2,0,45,222,0.3833736
41,41100,2,2,2,2,4,0,223,0.4500499
41,80100,2,1,-2,-2,4,0,224,0.3833737
41,55100,2,2,2,-2,0,0,225,0.3334584
41,134100,2,2,-2,2,0,0,226,0.3167043
41,1100,2,2,-2,-2,4,0,227,0.4833657
41,101100,2,2,-2,-2,4,45,228,0.4167943
41,11100,2,1,-2,2,0,45,229,0.4500422
41,131500,1,1,-2,2,0,45,230,0.6167267
41,117100,2,2,2,2,4,45,231,0.3667497
41,127100,2,1,2,-2,0,0,232,0.3666897
41,37100,2,2,-2,2,0,45,233,0.3667784
41,93100,2,2,-2,-2,4,45,234,0.4667432
41,5100,2,2,-2,2,0,45,235,0.5167192
41,104500,1,2,2,2,4,45,236,0.433375
41,83100,2,1,-2,-2,4,45,237,0.4501281
41,41500,1,1,2,-2,0,45,238,0.4500925
41,61100,2,2,-2,2,0,45,239,0.3833743
41,73100,2,1,2,2,4,45,240,0.4833936
41,113100,2,2,-2,-2,4,45,241,0.4501329
41,3100,2,2,-2,-2,4,0,242,0.5000421
41,132500,1,1,2,2,4,0,243,0.4167101
41,10100,2,2,-2,-2,4,45,244,0.450121
41,28100,2,1,2,-2,0,45,245,0.516787
41,126100,2,2,2,-2,0,0,246,0.4834122
41,79100,2,2,-2,-2,4,45,247,0.4833626
41,173500,1,1,2,2,4,0,248,0.4834076
41,27100,2,2,2,-2,0,0,249,0.4834143
41,138100,2,1,2,2,4,45,250,0.383412
41,83100,2,1,-2,2,0,0,251,0.4833448
41,58100,2,2,-2,-2,4,0,252,0.3833639
41,42100,2,2,-2,-2,4,0,253,0.4000831
41,17100,2,1,2,2,4,0,254,0.4499853
41,26100,2,1,2,-2,0,45,255,0.4334146
41,128500,1,2,-2,2,0,45,256,0.4000721
41,115100,2,2,2,2,4,45,257,0.3667838
41,144100,2,2,-2,-2,4,0,258,0.3334711
41,68500,1,2,-2,-2,4,45,259,0.416787
41,92500,1,2,2,2,4,0,260,0.5167818
41,111100,2,1,-2,2,0,45,261,0.6166851
41,84100,2,1,2,-2,0,0,262,0.4500376
41,28100,2,2,-2,-2,4,0,263,0.4500118
41,75100,2,1,-2,-2,4,0,264,0.3833169
41,17100,2,2,-2,-2,4,45,265,0.4500272
41,63500,1,2,2,-2,0,45,266,0.3834371
41,104500,1,1,-2,-2,4,45,267,0.3500616
41,26100,2,1,2,2,4,0,268,0.4500594
41,45100,2,1,2,2,4,45,269,0.4333574
41,80100,2,2,2,-2,0,45,270,0.4500523
41,157100,2,2,2,-2,0,0,271,0.4501323
41,18500,1,2,-2,2,0,0,272,0.5000718
41,91100,2,1,-2,-2,4,0,273,0.4500323
41,106100,2,1,2,-2,0,0,274,0.4000345
41,138100,2,2,-2,2,0,0,275,0.4833823
41,57100,2,1,-2,-2,4,45,276,0.4500464
41,7100,2,1,-2,-2,4,0,277,0.4846257
41,113100,2,2,-2,2,0,45,278,0.416794
41,29100,2,2,2,-2,0,0,279,0.483355
41,131100,2,1,2,2,4,45,280,0.366801
41,109100,2,2,2,-2,0,0,281,0.4666274
41,10100,2,2,-2,2,0,45,282,0.433412
41,132100,2,1,-2,-2,4,0,283,0.4833899
41,60100,2,1,-2,-2,4,0,284,0.4333308
41,33100,2,2,2,-2,0,0,285,0.4500858
41,110100,2,2,-2,2,0,0,286,0.366771
41,93100,2,1,2,2,4,0,287,0.4667185
41,66100,2,1,2,2,4,45,288,0.4500218
41,95100,2,1,2,-2,0,45,289,0.4834196
41,126100,2,2,2,2,4,0,290,0.5166901
41,20100,2,1,2,-2,0,45,291,0.4834527
41,117100,2,1,-2,-2,4,45,292,0.3668086
41,47100,2,1,-2,2,0,45,293,0.3999792
41,122100,2,2,-2,2,0,0,294,0.4333549
41,128500,1,2,-2,-2,4,45,295,0.4500309
41,101100,2,2,-2,2,0,45,296,0.4501055
41,172500,1,2,2,-2,0,45,297,0.4501618
41,134100,2,1,2,2,4,45,298,0.4001405
41,4100,2,2,2,-2,0,0,299,0.500121
41,4500,1,1,2,2,4,45,300,0.4501296
41,96100,2,1,-2,2,0,45,301,0.3668002
41,146100,2,2,2,2,4,0,302,0.4681336
41,13100,2,1,2,2,4,45,303,0.4499583
41,37100,2,1,2,2,4,0,304,0.4000367
41,141100,2,1,-2,-2,4,45,305,0.4833833
41,138500,1,1,2,-2,0,45,306,0.5000461
41,2100,2,1,-2,2,0,0,307,0.4834708
41,109100,2,1,-2,2,0,45,308,0.4500193
41,157100,2,1,-2,2,0,0,309,0.3667352
41,100100,2,1,-2,-2,4,0,310,0.4001141
41,152100,2,1,-2,2,0,45,311,0.4186733
41,70100,2,1,-2,2,0,45,312,0.4833304
41,9100,2,1,-2,-2,4,0,313,0.4334064
41,162100,2,1,2,-2,0,45,314,0.5000368
41,142100,2,1,2,-2,0,0,315,0.4334064
41,104500,1,2,2,-2,0,45,316,0.5333694
41,37100,2,2,-2,-2,4,0,317,0.4333241
41,120100,2,1,2,-2,0,0,318,0.6167926
41,33100,2,1,-2,2,0,0,319,0.500035
41,12500,1,1,-2,2,0,0,320,0.4333646
41,105500,1,2,-2,-2,4,45,321,0.433466
41,12500,1,2,2,-2,0,45,322,0.383385
41,125500,1,2,2,2,4,0,323,0.4500536
41,117500,1,2,2,-2,0,45,324,0.4001264
41,58100,2,2,-2,2,0,0,325,0.3167918
41,65100,2,2,2,-2,0,0,326,0.4001353
41,86100,2,1,-2,2,0,0,327,0.5000349
41,158100,2,2,-2,2,0,0,328,0.3834046
41,128500,1,1,2,2,4,45,329,0.4333885
41,144100,2,1,2,2,4,0,330,0.6334078
41,161100,2,1,-2,2,0,45,331,0.4167777
41,122100,2,1,2,2,4,0,332,0.5000292
41,79100,2,1,2,-2,0,0,333,0.4500325
41,115100,2,1,-2,2,0,45,334,0.3841315
41,72100,2,2,2,-2,0,0,335,0.4001381
41,94100,2,1,-2,2,0,0,336,0.6000385
41,5100,2,2,-2,-2,4,0,337,0.383393
41,146100,2,2,2,-2,0,0,338,0.3334418
41,73100,2,1,2,-2,0,0,339,0.3168237
41,33500,1,2,-2,-2,4,0,340,0.3500238
41,17100,2,1,2,-2,0,45,341,0.366782
41,162100,2,2,-2,-2,4,45,342,0.4667717
41,150100,2,1,2,2,4,45,343,0.4000186
41,28100,2,2,-2,2,0,45,344,0.3175581
41,26500,1,1,2,-2,0,45,345,0.433377
41,45100,2,2,-2,-2,4,0,346,0.400041
41,120100,2,2,-2,-2,4,0,347,0.3853935
41,86100,2,2,2,-2,0,45,348,0.416644
41,87100,2,2,-2,2,0,0,349,0.4167193
41,9100,2,1,-2,2,0,0,350,0.483363
41,63100,2,2,-2,-2,4,0,351,0.3834713
41,150100,2,1,2,-2,0,0,352,0.316732
41,125500,1,1,-2,2,0,45,353,0.3833878
41,161100,2,2,2,-2,0,0,354,0.4000497
41,111100,2,2,2,2,4,0,355,0.4167034
41,81100,2,2,-2,2,0,45,356,0.3676856
41,7100,2,2,2,2,4,45,357,0.3667273
41,76100,2,2,-2,2,0,0,358,0.3501184
41,120100,2,1,2,2,4,0,359,0.4001354
41,2100,2,2,2,-2,0,45,360,0.466798
41,10100,2,1,2,-2,0,45,361,0.4500382
41,106100,2,1,2,2,4,0,362,0.4833452
41,65100,2,1,-2,-2,4,0,363,0.3833459
41,31100,2,1,-2,-2,4,45,364,0.6347712
41,47100,2,2,2,-2,0,45,365,0.4501054
41,27100,2,1,-2,-2,4,0,366,0.5334316
41,77100,2,2,2,2,4,45,367,0.43336
41,13100,2,2,-2,-2,4,45,368,0.4166516
41,9100,2,2,2,2,4,0,369,0.4166779
41,71100,2,1,2,-2,0,45,370,0.4000485
41,31500,1,2,2,-2,0,0,371,0.5001278
41,105100,2,1,-2,2,0,45,372,0.3834156
41,76100,2,2,-2,-2,4,0,373,0.3834165
41,55100,2,1,-2,2,0,45,374,0.3501396
41,141100,2,2,2,2,4,0,375,0.4500791
41,45100,2,1,2,-2,0,45,376,0.4167827
41,158100,2,2,-2,-2,4,45,377,0.3667846
41,40100,2,2,-2,-2,4,45,378,0.3499722
41,76100,2,1,2,2,4,45,379,0.4334284
41,127100,2,2,-2,-2,4,45,380,0.4667466
41,29500,1,1,2,2,4,45,381,0.4333889
41,126100,2,1,-2,2,0,0,382,0.3167032
41,63100,2,1,2,-2,0,45,383,0.4166315
41,60100,2,1,-2,2,0,0,384,0.4167133
41,121500,1,2,-2,2,0,0,385,0.4000486
41,4500,1,2,-2,-2,4,0,386,0.5500482
41,143500,1,1,2,-2,0,45,387,0.4833687
41,153100,2,1,2,-2,0,45,388,0.4502027
