ID,cue_image,Face_Set_Code,Face_Type_Code,cue_position_x,target_position_x,conguruence,corAns,orientation,trials.thisN,Experiment_Trials_button.keys,Experiment_Trials_button.corr,Experiment_Trials_button.rt,,,,
37,70100,2,1,-2,2,0,5,0,0,5,1,0.4832913,,,,
37,131100,2,2,-2,2,0,5,0,1,5,1,0.4334959,,,,
37,153100,2,2,-2,-2,4,5,0,2,5,1,0.3833012,,,,
37,11100,2,2,2,2,4,5,0,3,5,1,0.4168029,,,,
37,173500,1,1,2,2,4,5,0,4,5,1,0.3501351,,,,
37,162100,2,1,2,-2,0,6,45,5,6,1,0.5500432,,,,
37,109100,2,1,-2,2,0,6,45,6,6,1,0.500138,,,,
37,101100,2,1,2,2,4,6,45,7,6,1,0.5501852,,,,
37,27100,2,2,2,2,4,5,0,8,5,1,0.6666934,,,,
37,9100,2,1,-2,-2,4,5,0,9,5,1,0.4000251,,,,
37,107100,2,2,2,-2,0,6,45,10,6,1,0.5005871,,,,
37,111100,2,1,-2,2,0,5,0,11,5,1,0.500011,,,,
37,81100,2,2,-2,-2,4,5,0,12,5,1,0.4333794,,,,
37,4100,2,2,2,2,4,6,45,13,6,1,0.5001256,,,,
37,62100,2,1,-2,2,0,6,45,14,6,1,0.4834115,,,,
37,87100,2,2,-2,2,0,6,45,15,6,1,0.5334093,,,,
37,30100,2,1,2,2,4,6,45,16,6,1,0.4666403,,,,
37,60100,2,1,-2,2,0,5,0,17,5,1,0.4666974,,,,
37,23100,2,2,-2,2,0,5,0,18,5,1,0.5167439,,,,
37,61100,2,2,-2,-2,4,5,0,19,5,1,0.5667934,,,,
37,100100,2,2,2,-2,0,6,45,20,6,1,0.5515813,,,,
37,107100,2,1,-2,-2,4,6,45,21,6,1,0.5500115,,,,
37,3100,2,1,2,2,4,5,0,22,5,1,0.4999368,,,,
37,68100,2,1,-2,2,0,5,0,23,5,1,0.5167895,,,,
37,117100,2,2,2,2,4,6,45,24,6,1,0.5667938,,,,
37,120100,2,1,2,-2,0,6,45,25,6,1,0.5861312,,,,
37,108100,2,2,-2,2,0,5,0,26,5,1,0.4666836,,,,
37,125500,1,1,-2,-2,4,6,45,27,6,1,0.516657,,,,
37,7100,2,1,-2,2,0,6,45,28,5,0,0.4666253,,,,
37,140500,1,1,-2,-2,4,6,45,29,6,1,0.683439,,,,
37,4100,2,1,-2,-2,4,6,45,30,6,1,0.4667935,,,,
37,69100,2,2,-2,2,0,6,45,31,6,1,0.5166857,,,,
37,5100,2,2,-2,-2,4,5,0,32,5,1,0.4666816,,,,
37,141100,2,2,2,2,4,6,45,33,6,1,0.5501208,,,,
37,21500,1,1,2,-2,0,6,45,34,6,1,0.5833626,,,,
37,136100,2,1,-2,-2,4,5,0,35,5,1,0.4834074,,,,
37,57100,2,1,-2,2,0,5,0,36,5,1,0.5166955,,,,
37,11100,2,1,-2,-2,4,6,45,37,6,1,0.4833151,,,,
37,142100,2,1,2,-2,0,6,45,38,6,1,0.4833511,,,,
37,172500,1,2,2,-2,0,5,0,39,5,1,0.4668112,,,,
37,52100,2,2,-2,-2,4,6,45,40,6,1,0.516789,,,,
37,69500,1,1,2,-2,0,5,0,41,5,1,0.5333522,,,,
37,68500,1,1,2,-2,0,5,0,42,5,1,0.4666954,,,,
37,93100,2,2,-2,2,0,6,45,43,6,1,0.500105,,,,
37,38100,2,2,2,-2,0,6,45,44,6,1,0.4688033,,,,
37,45100,2,2,-2,-2,4,5,0,45,5,1,0.5666225,,,,
37,143500,1,1,2,-2,0,5,0,46,5,1,0.4500921,,,,
37,117500,1,1,-2,2,0,5,0,47,5,1,0.5166193,,,,
37,134100,2,1,2,2,4,5,0,48,5,1,0.5000367,,,,
37,91100,2,2,2,-2,0,6,45,49,6,1,0.4667772,,,,
37,75100,2,1,-2,2,0,6,45,50,6,1,0.5168105,,,,
37,13100,2,2,-2,-2,4,5,0,51,5,1,0.5333153,,,,
37,56100,2,1,2,2,4,6,45,52,6,1,0.4833421,,,,
37,141500,1,1,2,2,4,5,0,53,5,1,0.500104,,,,
37,108500,1,1,2,-2,0,5,0,54,5,1,0.5000789,,,,
37,5100,2,2,-2,2,0,5,0,55,5,1,0.4000139,,,,
37,143100,2,2,2,2,4,6,45,56,6,1,0.5166816,,,,
37,107100,2,1,-2,2,0,5,0,57,5,1,0.5000881,,,,
37,20100,2,1,2,2,4,6,45,58,6,1,0.6000208,,,,
37,31100,2,1,-2,-2,4,5,0,59,5,1,0.4519292,,,,
37,120100,2,2,-2,-2,4,5,0,60,5,1,0.450041,,,,
37,136100,2,2,2,2,4,5,0,61,5,1,0.4167623,,,,
37,86100,2,1,-2,2,0,6,45,62,5,0,0.3667212,,,,
37,47100,2,1,-2,-2,4,6,45,63,6,1,0.5166798,,,,
37,3100,2,2,-2,2,0,5,0,64,5,1,0.5001185,,,,
37,41100,2,1,-2,2,0,5,0,65,5,1,0.5166859,,,,
37,61100,2,1,2,2,4,5,0,66,5,1,0.4834487,,,,
37,29500,1,1,2,2,4,5,0,67,5,1,0.4500292,,,,
37,91100,2,1,-2,2,0,6,45,68,6,1,0.4833454,,,,
37,130500,1,2,-2,2,0,6,45,69,6,1,0.5667139,,,,
37,134100,2,1,2,-2,0,5,0,70,5,1,0.5026134,,,,
37,31500,1,2,2,-2,0,5,0,71,5,1,0.7167977,,,,
37,57100,2,2,2,-2,0,5,0,72,5,1,0.4334708,,,,
37,92500,1,2,2,2,4,5,0,73,5,1,0.5166877,,,,
37,22100,2,2,2,2,4,6,45,74,6,1,0.5000968,,,,
37,5100,2,1,2,-2,0,6,45,75,6,1,0.5834219,,,,
37,152100,2,1,-2,2,0,5,0,76,5,1,0.550028,,,,
37,69500,1,2,-2,-2,4,6,45,77,6,1,0.5666774,,,,
37,41100,2,2,2,2,4,6,45,78,6,1,0.5667109,,,,
37,106100,2,1,2,-2,0,6,45,79,6,1,0.50265,,,,
37,26500,1,1,2,-2,0,5,0,80,5,1,0.5501686,,,,
37,20100,2,2,-2,2,0,5,0,81,5,1,0.4667944,,,,
37,35100,2,1,2,-2,0,5,0,82,5,1,0.3999165,,,,
37,38100,2,1,-2,-2,4,6,45,83,6,1,0.5167832,,,,
37,35100,2,2,-2,-2,4,6,45,84,6,1,0.4833587,,,,
37,123500,1,1,2,-2,0,6,45,85,6,1,0.4666481,,,,
37,31100,2,2,2,-2,0,5,0,86,6,0,0.4999836,,,,
37,56100,2,2,-2,-2,4,6,45,87,6,1,0.5333883,,,,
37,5100,2,1,2,2,4,6,45,88,6,1,0.48346,,,,
37,129100,2,1,-2,2,0,5,0,89,5,1,0.5166811,,,,
37,103500,1,1,2,2,4,6,45,90,6,1,0.5687858,,,,
37,96100,2,1,-2,-2,4,6,45,91,6,1,0.4678885,,,,
37,33100,2,1,-2,2,0,6,45,92,6,1,0.5000315,,,,
37,13100,2,1,2,2,4,6,45,93,6,1,0.483342,,,,
37,116100,2,2,-2,2,0,6,45,94,6,1,0.3999505,,,,
37,121500,1,1,2,-2,0,5,0,95,5,1,0.5172301,,,,
37,130500,1,2,-2,-2,4,6,45,96,6,1,0.5000984,,,,
37,125500,1,1,-2,2,0,5,0,97,5,1,0.4834665,,,,
37,31500,1,1,-2,2,0,5,0,98,5,1,0.5333527,,,,
37,131500,1,2,2,2,4,6,45,99,6,1,0.5501142,,,,
37,110100,2,1,2,2,4,6,45,100,6,1,0.4000389,,,,
37,1100,2,1,2,2,4,5,0,101,5,1,0.5333272,,,,
37,55100,2,1,-2,2,0,6,45,102,6,1,0.550052,,,,
37,84100,2,1,2,2,4,5,0,103,5,1,0.5166388,,,,
37,4500,1,2,-2,-2,4,6,45,104,6,1,0.5167308,,,,
37,121500,1,1,2,2,4,5,0,105,5,1,0.4862334,,,,
37,38100,2,1,-2,2,0,6,45,106,6,1,0.4666756,,,,
37,28100,2,2,-2,-2,4,6,45,107,6,1,0.5000415,,,,
37,158100,2,1,2,2,4,5,0,108,5,1,0.4667353,,,,
37,76100,2,2,-2,2,0,6,45,109,6,1,0.4168005,,,,
37,103500,1,2,-2,2,0,5,0,110,5,1,0.5334347,,,,
37,123500,1,1,2,2,4,5,0,111,5,1,0.3834478,,,,
37,65100,2,2,2,2,4,5,0,112,5,1,0.4834262,,,,
37,7100,2,1,-2,-2,4,5,0,113,5,1,0.5001131,,,,
37,101500,1,1,2,2,4,6,45,114,6,1,0.4500497,,,,
37,29500,1,1,2,-2,0,6,45,115,6,1,0.6000972,,,,
37,26500,1,2,-2,-2,4,6,45,116,6,1,0.5166349,,,,
37,98100,2,1,2,-2,0,6,45,117,6,1,0.5004083,,,,
37,61100,2,1,2,-2,0,6,45,118,6,1,0.5166855,,,,
37,26500,1,1,2,2,4,6,45,119,6,1,0.533391,,,,
37,125100,2,1,2,-2,0,6,45,120,6,1,0.5500038,,,,
37,117500,1,2,2,-2,0,5,0,121,5,1,0.4834164,,,,
37,122100,2,1,2,-2,0,5,0,122,5,1,0.4666381,,,,
37,158100,2,2,-2,-2,4,5,0,123,5,1,0.4667557,,,,
37,129100,2,2,2,2,4,5,0,124,5,1,0.5334601,,,,
37,128500,1,1,2,2,4,5,0,125,5,1,0.4667639,,,,
37,79100,2,1,2,-2,0,6,45,126,6,1,0.4833671,,,,
37,25100,2,1,-2,-2,4,6,45,127,6,1,0.5001443,,,,
37,134100,2,2,-2,-2,4,6,45,128,6,1,0.5167509,,,,
37,140500,1,1,-2,2,0,5,0,129,5,1,0.5167519,,,,
37,127100,2,1,2,2,4,6,45,130,5,0,0.5833663,,,,
37,37100,2,2,-2,2,0,5,0,131,5,1,0.4833295,,,,
37,141100,2,2,2,-2,0,6,45,132,6,1,0.4834606,,,,
37,95100,2,2,-2,-2,4,6,45,133,6,1,0.4999929,,,,
37,138100,2,1,2,-2,0,5,0,134,5,1,0.5167831,,,,
37,17100,2,1,2,2,4,6,45,135,6,1,0.5169237,,,,
37,45100,2,2,-2,2,0,5,0,136,5,1,0.5166654,,,,
37,138100,2,1,2,2,4,6,45,137,6,1,0.5000106,,,,
37,141500,1,1,2,-2,0,5,0,138,5,1,0.5501064,,,,
37,2100,2,1,-2,2,0,5,0,139,5,1,0.6166651,,,,
37,25100,2,2,2,2,4,6,45,140,5,0,0.6167203,,,,
37,79100,2,1,2,2,4,5,0,141,5,1,0.4844921,,,,
37,100100,2,1,-2,-2,4,6,45,142,6,1,0.5835661,,,,
37,25100,2,2,2,-2,0,5,0,143,5,1,0.6001118,,,,
37,75100,2,1,-2,-2,4,6,45,144,6,1,0.6167941,,,,
37,172500,1,1,-2,2,0,6,45,145,6,1,0.6834498,,,,
37,94100,2,2,2,-2,0,5,0,146,5,1,0.583267,,,,
37,31100,2,2,2,2,4,5,0,147,5,1,0.5000727,,,,
37,4500,1,1,2,2,4,6,45,148,6,1,0.5000082,,,,
37,13100,2,2,-2,2,0,6,45,149,6,1,0.5166036,,,,
37,93100,2,1,2,-2,0,6,45,150,6,1,0.6167325,,,,
37,132500,1,2,-2,-2,4,6,45,151,6,1,0.4666824,,,,
37,129100,2,1,-2,-2,4,6,45,152,6,1,0.5505468,,,,
37,18100,2,2,2,2,4,5,0,153,5,1,0.5001312,,,,
37,22500,1,1,-2,2,0,6,45,154,6,1,0.5501361,,,,
37,22100,2,1,-2,2,0,5,0,155,5,1,0.5833783,,,,
37,17100,2,2,-2,2,0,5,0,156,5,1,0.5334263,,,,
37,129100,2,2,2,-2,0,5,0,157,5,1,0.6333308,,,,
37,63500,1,1,-2,2,0,6,45,158,6,1,0.5667443,,,,
37,57100,2,2,2,2,4,5,0,159,5,1,0.6167309,,,,
37,128500,1,2,-2,-2,4,5,0,160,5,1,0.5667995,,,,
37,12500,1,2,2,2,4,6,45,161,6,1,0.4833173,,,,
37,27100,2,1,-2,-2,4,6,45,162,6,1,0.6674462,,,,
37,69500,1,1,2,2,4,5,0,163,5,1,0.5166692,,,,
37,36100,2,1,-2,2,0,6,45,164,5,0,0.8501252,,,,
37,122100,2,2,-2,2,0,5,0,165,5,1,0.5001289,,,,
37,68500,1,1,2,2,4,6,45,166,6,1,0.5169977,,,,
37,33100,2,2,2,2,4,6,45,167,6,1,0.4833579,,,,
37,173500,1,2,-2,-2,4,5,0,168,5,1,0.6333581,,,,
37,72100,2,1,-2,-2,4,5,0,169,5,1,0.4667836,,,,
37,16100,2,1,-2,-2,4,6,45,170,6,1,0.6499637,,,,
37,18100,2,1,-2,2,0,5,0,171,5,1,0.5501232,,,,
37,62100,2,2,2,2,4,5,0,172,5,1,0.566635,,,,
37,47100,2,2,2,-2,0,5,0,173,5,1,0.5836314,,,,
37,26100,2,2,-2,2,0,5,0,174,5,1,0.5515748,,,,
37,134100,2,2,-2,2,0,6,45,175,6,1,0.5179123,,,,
37,111100,2,2,2,-2,0,6,45,176,6,1,0.5167995,,,,
37,31500,1,2,2,2,4,6,45,177,6,1,0.4500989,,,,
37,40100,2,1,2,2,4,6,45,178,6,1,0.6333586,,,,
37,106100,2,2,-2,2,0,5,0,179,5,1,0.5001308,,,,
37,153100,2,2,-2,2,0,5,0,180,5,1,0.4519178,,,,
37,40100,2,1,2,-2,0,5,0,181,5,1,0.5001595,,,,
37,28100,2,1,2,-2,0,6,45,182,6,1,0.5501272,,,,
37,40100,2,2,-2,2,0,5,0,183,5,1,0.6833634,,,,
37,55100,2,2,2,-2,0,5,0,184,5,1,0.5834498,,,,
37,153100,2,1,2,2,4,5,0,185,5,1,0.5000224,,,,
37,26100,2,1,2,-2,0,5,0,186,5,1,0.50003,,,,
37,162100,2,1,2,2,4,5,0,187,5,1,0.4667999,,,,
37,125100,2,2,-2,-2,4,6,45,188,6,1,0.5499709,,,,
37,81100,2,1,2,-2,0,5,0,189,5,1,0.5333702,,,,
37,132500,1,1,2,2,4,5,0,190,5,1,0.6167435,,,,
37,29100,2,1,-2,2,0,6,45,191,6,1,0.5499706,,,,
37,29500,1,2,-2,2,0,5,0,192,5,1,0.4833367,,,,
37,125100,2,2,-2,2,0,6,45,193,6,1,0.7333054,,,,
37,84100,2,2,-2,2,0,6,45,194,6,1,0.4833595,,,,
37,172500,1,2,2,2,4,5,0,195,5,1,0.5166944,,,,
37,115100,2,1,-2,-2,4,6,45,196,6,1,0.650013,,,,
37,132100,2,2,2,-2,0,6,45,197,6,1,0.6166926,,,,
37,138100,2,2,-2,2,0,5,0,198,5,1,0.5333356,,,,
37,104500,1,1,-2,-2,4,5,0,199,5,1,0.5166524,,,,
37,113100,2,1,2,2,4,6,45,200,6,1,0.5666329,,,,
37,83100,2,1,-2,-2,4,6,45,201,6,1,0.6000293,,,,
37,143500,1,2,-2,-2,4,6,45,202,6,1,0.3833659,,,,
37,49100,2,2,2,-2,0,6,45,203,6,1,0.4166233,,,,
37,23100,2,1,2,2,4,6,45,204,6,1,0.4333492,,,,
37,76100,2,1,2,2,4,6,45,205,6,1,0.4166945,,,,
37,124100,2,1,-2,2,0,5,0,206,5,1,0.5667554,,,,
37,10100,2,2,-2,-2,4,6,45,207,6,1,0.4999955,,,,
37,94100,2,2,2,2,4,6,45,208,6,1,0.4668023,,,,
37,144100,2,1,2,2,4,5,0,209,5,1,0.6500986,,,,
37,84100,2,2,-2,-2,4,5,0,210,5,1,0.500147,,,,
37,117100,2,1,-2,-2,4,5,0,211,5,1,0.4834284,,,,
37,158100,2,2,-2,2,0,5,0,212,5,1,0.5833451,,,,
37,68500,1,2,-2,-2,4,6,45,213,6,1,0.5833325,,,,
37,32100,2,2,-2,2,0,6,45,214,6,1,0.4500175,,,,
37,77100,2,2,2,-2,0,5,0,215,5,1,0.6834076,,,,
37,130500,1,1,2,2,4,5,0,216,5,1,0.4834244,,,,
37,108100,2,2,-2,-2,4,5,0,217,5,1,0.4667104,,,,
37,110100,2,2,-2,2,0,5,0,218,5,1,0.5167368,,,,
37,33100,2,1,-2,-2,4,5,0,219,5,1,0.4340176,,,,
37,76100,2,2,-2,-2,4,5,0,220,5,1,0.4500414,,,,
37,77100,2,1,-2,2,0,6,45,221,6,1,0.5167798,,,,
37,41500,1,1,2,2,4,5,0,222,5,1,0.5666475,,,,
37,158100,2,1,2,-2,0,6,45,223,6,1,0.6666443,,,,
37,100100,2,2,2,2,4,5,0,224,5,1,0.600079,,,,
37,132500,1,1,2,-2,0,6,45,225,6,1,0.5667962,,,,
37,33100,2,2,2,-2,0,5,0,226,5,1,0.6666967,,,,
37,122100,2,2,-2,-2,4,6,45,227,6,1,0.6332981,,,,
37,72100,2,1,-2,2,0,6,45,228,6,1,0.6000206,,,,
37,68100,2,1,-2,-2,4,5,0,229,5,1,0.5000159,,,,
37,157100,2,2,2,2,4,5,0,230,5,1,0.4501325,,,,
37,86100,2,2,2,2,4,6,45,231,6,1,0.5166006,,,,
37,173500,1,1,2,-2,0,6,45,232,5,0,0.5333631,,,,
37,101500,1,2,-2,-2,4,6,45,233,6,1,0.5833141,,,,
37,93100,2,1,2,2,4,5,0,234,5,1,0.6667046,,,,
37,116100,2,2,-2,-2,4,5,0,235,5,1,0.7334216,,,,
37,63100,2,2,-2,2,0,6,45,236,6,1,0.5666888,,,,
37,22100,2,1,-2,-2,4,6,45,237,6,1,0.5501173,,,,
37,130500,1,1,2,-2,0,6,45,238,6,1,0.4500436,,,,
37,153100,2,1,2,-2,0,6,45,239,6,1,0.4334888,,,,
37,52100,2,1,2,2,4,5,0,240,5,1,0.5167975,,,,
37,36100,2,2,2,2,4,6,45,241,6,1,0.4500248,,,,
37,27100,2,1,-2,2,0,5,0,242,5,1,0.5167819,,,,
37,124100,2,2,2,2,4,5,0,243,5,1,0.5334592,,,,
37,11100,2,1,-2,2,0,5,0,244,5,1,0.5001195,,,,
37,41500,1,2,-2,-2,4,6,45,245,6,1,0.600015,,,,
37,106100,2,1,2,2,4,5,0,246,5,1,0.4834538,,,,
37,107100,2,2,2,2,4,6,45,247,6,1,0.4999733,,,,
37,103500,1,1,2,-2,0,6,45,248,6,1,0.5501343,,,,
37,43100,2,1,-2,2,0,6,45,249,6,1,0.5167895,,,,
37,120100,2,1,2,2,4,5,0,250,5,1,0.4834236,,,,
37,121100,2,1,-2,2,0,6,45,251,6,1,0.4834284,,,,
37,123500,1,2,-2,-2,4,6,45,252,6,1,0.6834234,,,,
37,98100,2,1,2,2,4,5,0,253,5,1,0.6834164,,,,
37,18500,1,1,2,2,4,6,45,254,6,1,0.4500168,,,,
37,131500,1,1,-2,-2,4,5,0,255,5,1,0.5504111,,,,
37,16100,2,2,2,2,4,6,45,256,6,1,0.5166626,,,,
37,26500,1,2,-2,2,0,5,0,257,5,1,0.5167492,,,,
37,69100,2,2,-2,-2,4,5,0,258,6,0,0.4508434,,,,
37,98100,2,2,-2,2,0,6,45,259,6,1,0.5666267,,,,
37,121500,1,2,-2,-2,4,5,0,260,5,1,0.533363,,,,
37,126100,2,1,-2,-2,4,5,0,261,5,1,0.534944,,,,
37,125500,1,2,2,-2,0,6,45,262,6,1,0.583452,,,,
37,109100,2,1,-2,-2,4,5,0,263,5,1,0.566804,,,,
37,138500,1,2,-2,-2,4,6,45,264,6,1,0.5834327,,,,
37,36100,2,1,-2,-2,4,6,45,265,6,1,0.5501235,,,,
37,73100,2,1,2,-2,0,5,0,266,5,1,0.549957,,,,
37,63100,2,1,2,-2,0,6,45,267,6,1,0.5499399,,,,
37,101100,2,2,-2,-2,4,5,0,268,5,1,0.483354,,,,
37,95100,2,1,2,-2,0,5,0,269,5,1,0.4682,,,,
37,26100,2,2,-2,-2,4,5,0,270,5,1,0.4501225,,,,
37,68100,2,2,2,2,4,6,45,271,6,1,0.4500249,,,,
37,144100,2,2,-2,2,0,6,45,272,6,1,0.4510403,,,,
37,141500,1,2,-2,-2,4,6,45,273,6,1,0.4833204,,,,
37,96100,2,2,2,2,4,5,0,274,5,1,0.4834605,,,,
37,161100,2,2,2,-2,0,5,0,275,5,1,0.6016623,,,,
37,105500,1,1,2,2,4,6,45,276,6,1,0.6666833,,,,
37,17100,2,2,-2,-2,4,5,0,277,5,1,0.483348,,,,
37,76100,2,1,2,-2,0,5,0,278,5,1,0.5667916,,,,
37,66100,2,1,2,2,4,5,0,279,5,1,0.51663,,,,
37,120100,2,2,-2,2,0,6,45,280,6,1,0.9333322,,,,
37,142100,2,1,2,2,4,6,45,281,6,1,0.4500464,,,,
37,98100,2,2,-2,-2,4,5,0,282,5,1,0.4500331,,,,
37,10100,2,2,-2,2,0,5,0,283,5,1,0.5166118,,,,
37,83100,2,2,2,2,4,5,0,284,5,1,0.4832785,,,,
37,12500,1,1,-2,2,0,6,45,285,6,1,0.5502281,,,,
37,36100,2,2,2,-2,0,5,0,286,5,1,0.6000224,,,,
37,161100,2,1,-2,2,0,5,0,287,5,1,0.6333443,,,,
37,143500,1,2,-2,2,0,6,45,288,6,1,0.6841872,,,,
37,83100,2,1,-2,2,0,6,45,289,6,1,0.5000212,,,,
37,71100,2,1,2,-2,0,6,45,290,6,1,0.4833074,,,,
37,92500,1,1,-2,-2,4,5,0,291,5,1,0.4999897,,,,
37,41500,1,1,2,-2,0,6,45,292,6,1,0.5334075,,,,
37,117100,2,2,2,-2,0,5,0,293,5,1,0.4833743,,,,
37,2100,2,2,2,2,4,5,0,294,5,1,0.4853036,,,,
37,69500,1,2,-2,2,0,5,0,295,5,1,0.4176271,,,,
37,115100,2,2,2,2,4,5,0,296,5,1,0.4666954,,,,
37,80100,2,2,2,2,4,6,45,297,6,1,0.4333427,,,,
37,18100,2,1,-2,-2,4,5,0,298,5,1,0.4834613,,,,
37,104500,1,2,2,-2,0,6,45,299,6,1,0.4843008,,,,
37,161100,2,2,2,2,4,6,45,300,6,1,0.4000298,,,,
37,48100,2,1,2,-2,0,6,45,301,6,1,0.4666088,,,,
37,87100,2,1,2,-2,0,6,45,302,6,1,0.4333958,,,,
37,22500,1,1,-2,-2,4,6,45,303,6,1,0.4339128,,,,
37,146100,2,1,-2,-2,4,6,45,304,6,1,0.4166767,,,,
37,79100,2,2,-2,-2,4,6,45,305,6,1,0.4833724,,,,
37,49100,2,1,-2,-2,4,5,0,306,5,1,0.5510749,,,,
37,35100,2,1,2,2,4,5,0,307,5,1,0.5167617,,,,
37,12500,1,1,-2,-2,4,6,45,308,6,1,0.5667961,,,,
37,131500,1,2,2,-2,0,6,45,309,6,1,0.4000305,,,,
37,7100,2,2,2,2,4,5,0,310,5,1,0.6664643,,,,
37,146100,2,2,2,2,4,5,0,311,5,1,0.5001185,,,,
37,42100,2,2,-2,2,0,5,0,312,5,1,0.4834336,,,,
37,21500,1,2,-2,-2,4,6,45,313,6,1,0.7833446,,,,
37,157100,2,2,2,-2,0,6,45,314,6,1,0.5166836,,,,
37,37100,2,1,2,-2,0,6,45,315,6,1,0.5168224,,,,
37,121500,1,2,-2,2,0,5,0,316,5,1,0.5333505,,,,
37,79100,2,2,-2,2,0,5,0,317,5,1,0.5001145,,,,
37,25100,2,1,-2,2,0,5,0,318,5,1,0.4999413,,,,
37,125500,1,2,2,2,4,6,45,319,6,1,0.5350571,,,,
37,65100,2,2,2,-2,0,6,45,320,6,1,0.6666967,,,,
37,28100,2,2,-2,2,0,5,0,321,5,1,0.5000171,,,,
37,143100,2,1,-2,-2,4,6,45,322,6,1,0.5834667,,,,
37,4100,2,2,2,-2,0,5,0,323,5,1,0.6166871,,,,
37,73100,2,2,-2,-2,4,5,0,324,5,1,0.5500477,,,,
37,173500,1,2,-2,2,0,6,45,325,6,1,0.500128,,,,
37,9100,2,2,2,-2,0,5,0,326,5,1,0.5500335,,,,
37,16100,2,1,-2,2,0,5,0,327,5,1,0.6167538,,,,
37,18500,1,2,-2,-2,4,5,0,328,5,1,0.4668007,,,,
37,60100,2,2,2,-2,0,6,45,329,6,1,0.6000131,,,,
37,105100,2,1,-2,2,0,6,45,330,6,1,0.5182255,,,,
37,141100,2,1,-2,2,0,6,45,331,6,1,0.4848546,,,,
37,63500,1,2,2,-2,0,6,45,332,6,1,0.5501129,,,,
37,1100,2,1,2,-2,0,6,45,333,6,1,0.4501249,,,,
37,152100,2,2,2,-2,0,6,45,334,6,1,0.4500466,,,,
37,60100,2,2,2,2,4,5,0,335,5,1,0.5168031,,,,
37,81100,2,2,-2,2,0,5,0,336,5,1,0.6334326,,,,
37,48100,2,1,2,2,4,5,0,337,5,1,0.5001238,,,,
37,136100,2,1,-2,2,0,5,0,338,5,1,0.6021475,,,,
37,87100,2,2,-2,-2,4,5,0,339,5,1,0.5500967,,,,
37,121100,2,1,-2,-2,4,6,45,340,6,1,0.5500289,,,,
37,122100,2,1,2,2,4,6,45,341,6,1,0.4501319,,,,
37,49100,2,1,-2,2,0,5,0,342,5,1,0.5333584,,,,
37,161100,2,1,-2,-2,4,6,45,343,6,1,0.5530059,,,,
37,21500,1,1,2,2,4,6,45,344,6,1,0.5500341,,,,
37,75100,2,2,2,-2,0,6,45,345,6,1,0.6834464,,,,
37,80100,2,2,2,-2,0,6,45,346,6,1,0.5500037,,,,
37,111100,2,1,-2,-2,4,6,45,347,6,1,0.7518425,,,,
37,144100,2,1,2,-2,0,5,0,348,5,1,0.700121,,,,
37,40100,2,2,-2,-2,4,6,45,349,6,1,0.5666861,,,,
37,66100,2,2,-2,-2,4,6,45,350,6,1,0.4168039,,,,
37,63500,1,1,-2,-2,4,5,0,351,5,1,0.4668004,,,,
37,157100,2,1,-2,2,0,6,45,352,6,1,0.4666831,,,,
37,126100,2,1,-2,2,0,5,0,353,5,1,0.4667816,,,,
37,38100,2,2,2,2,4,5,0,354,5,1,0.4334352,,,,
37,9100,2,2,2,2,4,6,45,355,6,1,0.5167484,,,,
37,141100,2,1,-2,-2,4,6,45,356,5,0,0.5833591,,,,
37,43100,2,2,2,2,4,6,45,357,6,1,0.5000265,,,,
37,121100,2,2,2,2,4,5,0,358,5,1,0.5168364,,,,
37,117100,2,1,-2,2,0,5,0,359,5,1,0.4181451,,,,
37,140500,1,2,2,2,4,6,45,360,6,1,0.5667768,,,,
37,8100,2,2,-2,2,0,6,45,361,6,1,1.1832985,,,,
37,43100,2,2,2,-2,0,5,0,362,5,1,0.5167195,,,,
37,8100,2,2,-2,-2,4,6,45,363,6,1,0.4507789,,,,
37,57100,2,1,-2,-2,4,6,45,364,6,1,0.4667986,,,,
37,23100,2,2,-2,-2,4,6,45,365,6,1,0.516587,,,,
37,18500,1,2,-2,2,0,5,0,366,5,1,0.5178259,,,,
37,109100,2,2,2,-2,0,6,45,367,6,1,0.4666269,,,,
37,10100,2,1,2,-2,0,5,0,368,5,1,0.8166098,,,,
37,143100,2,2,2,-2,0,6,45,369,6,1,0.5166454,,,,
37,60100,2,1,-2,-2,4,5,0,370,5,1,0.4833501,,,,
37,63100,2,1,2,2,4,5,0,371,5,1,0.5332935,,,,
37,23100,2,1,2,-2,0,5,0,372,5,1,0.516798,,,,
37,20100,2,1,2,-2,0,5,0,373,5,1,0.4500052,,,,
37,144100,2,2,-2,-2,4,6,45,374,6,1,0.5332746,,,,
37,20100,2,2,-2,-2,4,6,45,375,6,1,0.4500241,,,,
37,42100,2,1,2,2,4,6,45,376,6,1,0.5500051,,,,
37,63100,2,2,-2,-2,4,6,45,377,6,1,0.5168028,,,,
37,71100,2,2,-2,2,0,6,45,378,6,1,0.5333515,,,,
37,70100,2,2,2,-2,0,5,0,379,5,1,0.5333638,,,,
37,110100,2,2,-2,-2,4,5,0,380,5,1,0.5500124,,,,
37,29100,2,2,2,-2,0,5,0,381,5,1,0.5013325,,,,
37,127100,2,2,-2,-2,4,6,45,382,6,1,0.4999706,,,,
37,121100,2,2,2,-2,0,6,45,383,6,1,0.4833418,,,,
37,131100,2,1,2,2,4,5,0,384,5,1,0.5666378,,,,
37,26100,2,1,2,2,4,5,0,385,5,1,0.5500015,,,,
37,105100,2,1,-2,-2,4,5,0,386,5,1,0.5001301,,,,
37,138500,1,1,2,2,4,6,45,387,6,1,0.61671,,,,
37,2100,2,2,2,-2,0,5,0,388,5,1,0.6666831,,,,
37,140500,1,2,2,-2,0,5,0,389,5,1,0.7347858,,,,
37,101100,2,2,-2,2,0,6,45,390,6,1,0.9000496,,,,
37,131100,2,2,-2,-2,4,5,0,391,5,1,0.6333564,,,,
37,131100,2,1,2,-2,0,6,45,392,6,1,1.1501215,,,,
37,28100,2,1,2,2,4,5,0,393,5,1,0.5000455,,,,
37,30100,2,1,2,-2,0,6,45,394,6,1,0.533373,,,,
37,105500,1,1,2,-2,0,5,0,395,5,1,0.5167531,,,,
37,30100,2,2,-2,-2,4,6,45,396,6,1,0.483345,,,,
37,18100,2,2,2,-2,0,5,0,397,5,1,0.5666534,,,,
37,125100,2,1,2,2,4,5,0,398,5,1,0.5503156,,,,
37,128500,1,1,2,-2,0,6,45,399,6,1,0.5834219,,,,
37,48100,2,2,-2,-2,4,6,45,400,6,1,0.5334182,,,,
37,30100,2,2,-2,2,0,6,45,401,6,1,0.4843728,,,,
37,127100,2,1,2,-2,0,5,0,402,5,1,0.5166873,,,,
37,58100,2,1,2,2,4,5,0,403,5,1,0.6000403,,,,
37,93100,2,2,-2,-2,4,5,0,404,5,1,0.5500178,,,,
37,4500,1,1,2,-2,0,6,45,405,6,1,0.5676066,,,,
37,77100,2,1,-2,-2,4,5,0,406,5,1,0.5668133,,,,
37,70100,2,1,-2,-2,4,6,45,407,6,1,0.4833777,,,,
37,69100,2,1,2,-2,0,5,0,408,5,1,0.5000118,,,,
37,150100,2,1,2,-2,0,5,0,409,5,1,0.4505097,,,,
37,32100,2,1,2,-2,0,5,0,410,5,1,0.4833729,,,,
37,3100,2,1,2,-2,0,5,0,411,5,1,0.4021522,,,,
37,72100,2,2,2,-2,0,5,0,412,5,1,0.4166896,,,,
37,152100,2,2,2,2,4,6,45,413,6,1,0.4518364,,,,
37,81100,2,1,2,2,4,5,0,414,5,1,0.5500205,,,,
37,47100,2,2,2,2,4,6,45,415,6,1,0.5333695,,,,
37,115100,2,1,-2,2,0,5,0,416,5,1,0.5001045,,,,
37,65100,2,1,-2,-2,4,5,0,417,5,1,0.5167781,,,,
37,22100,2,2,2,-2,0,6,45,418,6,1,0.516698,,,,
37,146100,2,2,2,-2,0,5,0,419,5,1,0.5334557,,,,
37,103500,1,2,-2,-2,4,6,45,420,6,1,0.5018343,,,,
37,150100,2,2,-2,2,0,5,0,421,5,1,0.5341554,,,,
37,123500,1,2,-2,2,0,6,45,422,6,1,0.5500087,,,,
37,29500,1,2,-2,-2,4,6,45,423,6,1,0.4999863,,,,
37,108500,1,2,-2,-2,4,5,0,424,5,1,0.4347344,,,,
37,29100,2,2,2,2,4,5,0,425,5,1,0.4999573,,,,
37,132100,2,2,2,2,4,5,0,426,5,1,0.4500179,,,,
37,143500,1,1,2,2,4,6,45,427,6,1,0.4333853,,,,
37,56100,2,2,-2,2,0,6,45,428,6,1,0.4334175,,,,
37,157100,2,1,-2,-2,4,6,45,429,6,1,0.4666729,,,,
37,83100,2,2,2,-2,0,6,45,430,6,1,0.5500283,,,,
37,22500,1,2,2,-2,0,6,45,431,6,1,0.383433,,,,
37,127100,2,2,-2,2,0,6,45,432,6,1,0.4334693,,,,
37,35100,2,2,-2,2,0,6,45,433,6,1,0.4667033,,,,
37,113100,2,2,-2,2,0,6,45,434,6,1,0.383408,,,,
37,9100,2,1,-2,2,0,5,0,435,5,1,0.4168034,,,,
37,96100,2,1,-2,2,0,5,0,436,5,1,0.4694876,,,,
37,101500,1,2,-2,2,0,5,0,437,5,1,0.366747,,,,
37,80100,2,1,-2,2,0,6,45,438,5,0,0.3834334,,,,
37,94100,2,1,-2,2,0,5,0,439,5,1,0.5000442,,,,
37,62100,2,2,2,-2,0,6,45,440,6,1,0.5001088,,,,
37,116100,2,1,2,-2,0,5,0,441,5,1,0.5333837,,,,
37,32100,2,2,-2,-2,4,6,45,442,6,1,0.53334,,,,
37,94100,2,1,-2,-2,4,6,45,443,6,1,0.5000134,,,,
37,138500,1,1,2,-2,0,6,45,444,6,1,0.5167869,,,,
37,105100,2,2,2,-2,0,6,45,445,6,1,0.4834685,,,,
37,52100,2,1,2,-2,0,6,45,446,6,1,0.5167987,,,,
37,72100,2,2,2,2,4,6,45,447,6,1,0.5334557,,,,
37,138500,1,2,-2,2,0,5,0,448,5,1,0.5166811,,,,
37,92500,1,2,2,-2,0,6,45,449,6,1,0.4666523,,,,
37,95100,2,2,-2,2,0,6,45,450,6,1,0.5000244,,,,
37,106100,2,2,-2,-2,4,5,0,451,5,1,0.5000207,,,,
37,100100,2,1,-2,2,0,6,45,452,6,1,0.5001171,,,,
37,45100,2,1,2,2,4,5,0,453,5,1,0.9000099,,,,
37,96100,2,2,2,-2,0,5,0,454,5,1,0.6999935,,,,
37,37100,2,1,2,2,4,5,0,455,5,1,0.6500225,,,,
37,117500,1,2,2,2,4,6,45,456,6,1,0.6001056,,,,
37,104500,1,1,-2,2,0,6,45,457,6,1,0.5017769,,,,
37,7100,2,2,2,-2,0,5,0,458,5,1,0.6000176,,,,
37,12500,1,2,2,-2,0,6,45,459,6,1,0.5500262,,,,
37,41100,2,1,-2,-2,4,5,0,460,5,1,0.5167053,,,,
37,91100,2,1,-2,-2,4,5,0,461,5,1,0.4500236,,,,
37,86100,2,1,-2,-2,4,6,45,462,6,1,0.4834156,,,,
37,150100,2,2,-2,-2,4,6,45,463,6,1,0.383403,,,,
37,41500,1,2,-2,2,0,5,0,464,5,1,0.6501031,,,,
37,33500,1,2,-2,2,0,5,0,465,5,1,0.5011262,,,,
37,11100,2,2,2,-2,0,6,45,466,6,1,0.5332969,,,,
37,27100,2,2,2,-2,0,5,0,467,5,1,0.6166477,,,,
37,62100,2,1,-2,-2,4,6,45,468,6,1,0.5181276,,,,
37,33500,1,1,2,2,4,6,45,469,6,1,0.5166368,,,,
37,84100,2,1,2,-2,0,5,0,470,5,1,0.5680556,,,,
37,77100,2,2,2,2,4,5,0,471,5,1,0.5000336,,,,
37,8100,2,1,2,-2,0,5,0,472,5,1,0.450112,,,,
37,108500,1,2,-2,2,0,6,45,473,6,1,0.4168019,,,,
37,87100,2,1,2,2,4,6,45,474,6,1,0.5000244,,,,
37,2100,2,1,-2,-2,4,5,0,475,6,0,0.7998946,,,,
37,16100,2,2,2,-2,0,6,45,476,6,1,0.6006504,,,,
37,13100,2,1,2,-2,0,6,45,477,6,1,0.5683054,,,,
37,162100,2,2,-2,2,0,5,0,478,5,1,0.5999573,,,,
37,68500,1,2,-2,2,0,5,0,479,5,1,0.5499844,,,,
37,80100,2,1,-2,-2,4,6,45,480,6,1,0.8667089,,,,
37,128500,1,2,-2,2,0,6,45,481,6,1,0.5832813,,,,
37,55100,2,2,2,2,4,5,0,482,5,1,0.7000069,,,,
37,152100,2,1,-2,-2,4,6,45,483,6,1,0.5667053,,,,
37,111100,2,2,2,2,4,5,0,484,5,1,0.5000275,,,,
37,4500,1,2,-2,2,0,5,0,485,5,1,0.5500417,,,,
37,141500,1,2,-2,2,0,5,0,486,5,1,0.5167846,,,,
37,172500,1,1,-2,-2,4,5,0,487,5,1,0.5333387,,,,
37,49100,2,2,2,2,4,5,0,488,5,1,0.5334615,,,,
37,1100,2,2,-2,-2,4,5,0,489,5,1,0.467921,,,,
37,108100,2,1,2,2,4,6,45,490,6,1,0.5671971,,,,
37,91100,2,2,2,2,4,5,0,491,5,1,0.433308,,,,
37,48100,2,2,-2,2,0,5,0,492,5,1,0.4499612,,,,
37,71100,2,2,-2,-2,4,5,0,493,5,1,0.4666758,,,,
37,45100,2,1,2,-2,0,5,0,494,5,1,0.4511981,,,,
37,42100,2,1,2,-2,0,6,45,495,6,1,0.5834492,,,,
37,138100,2,2,-2,-2,4,5,0,496,5,1,0.3833619,,,,
37,4100,2,1,-2,2,0,5,0,497,5,1,0.5000309,,,,
37,136100,2,2,2,-2,0,6,45,498,6,1,0.5333475,,,,
37,117500,1,1,-2,-2,4,6,45,499,6,1,0.5667999,,,,
37,10100,2,1,2,2,4,5,0,500,5,1,0.4845881,,,,
37,33500,1,1,2,-2,0,5,0,501,5,1,0.4169023,,,,
37,105100,2,2,2,2,4,5,0,502,5,1,0.4667145,,,,
37,131500,1,1,-2,2,0,6,45,503,6,1,0.4833347,,,,
37,142100,2,2,-2,-2,4,6,45,504,5,0,0.5166925,,,,
37,22500,1,2,2,2,4,5,0,505,5,1,0.533503,,,,
37,146100,2,1,-2,2,0,5,0,506,5,1,0.4833707,,,,
37,58100,2,2,-2,2,0,5,0,507,5,1,0.4666937,,,,
37,56100,2,1,2,-2,0,6,45,508,6,1,0.4505392,,,,
37,113100,2,1,2,-2,0,6,45,509,6,1,0.416643,,,,
37,65100,2,1,-2,2,0,6,45,510,6,1,0.4334603,,,,
37,70100,2,2,2,2,4,5,0,511,5,1,0.5333591,,,,
37,108500,1,1,2,2,4,5,0,512,5,1,0.4501374,,,,
37,132100,2,1,-2,-2,4,6,45,513,6,1,0.5501257,,,,
37,58100,2,1,2,-2,0,5,0,514,5,1,0.6334087,,,,
37,43100,2,1,-2,-2,4,6,45,515,6,1,0.5834059,,,,
37,132500,1,2,-2,2,0,6,45,516,6,1,0.5334683,,,,
37,71100,2,1,2,2,4,5,0,517,5,1,0.583411,,,,
37,108100,2,1,2,-2,0,6,45,518,6,1,0.4511684,,,,
37,95100,2,1,2,2,4,6,45,519,5,0,0.5501138,,,,
37,66100,2,1,2,-2,0,5,0,520,5,1,0.6334258,,,,
37,105500,1,2,-2,2,0,6,45,521,6,1,0.6333605,,,,
37,8100,2,1,2,2,4,5,0,522,5,1,0.5834392,,,,
37,55100,2,1,-2,-2,4,5,0,523,5,1,0.5667705,,,,
37,42100,2,2,-2,-2,4,5,0,524,5,1,0.5335003,,,,
37,68100,2,2,2,-2,0,5,0,525,5,1,0.6667817,,,,
37,126100,2,2,2,-2,0,5,0,526,5,1,0.650099,,,,
37,17100,2,1,2,-2,0,5,0,527,5,1,0.6001225,,,,
37,58100,2,2,-2,-2,4,5,0,528,5,1,0.5834312,,,,
37,101500,1,1,2,-2,0,6,45,529,5,0,0.4839212,,,,
37,63500,1,2,2,2,4,5,0,530,5,1,0.6000403,,,,
37,75100,2,2,2,2,4,6,45,531,6,1,0.7833088,,,,
37,52100,2,2,-2,2,0,6,45,532,6,1,0.6000789,,,,
37,150100,2,1,2,2,4,6,45,533,6,1,0.6167493,,,,
37,3100,2,2,-2,-2,4,5,0,534,5,1,0.5166798,,,,
37,105500,1,2,-2,-2,4,6,45,535,5,0,0.566693,,,,
37,110100,2,1,2,-2,0,6,45,536,6,1,0.5833553,,,,
37,124100,2,1,-2,-2,4,6,45,537,6,1,0.4334442,,,,
37,101100,2,1,2,-2,0,6,45,538,6,1,0.5000218,,,,
37,32100,2,1,2,2,4,5,0,539,5,1,0.5667893,,,,
37,47100,2,1,-2,2,0,5,0,540,5,1,0.6333375,,,,
37,113100,2,2,-2,-2,4,6,45,541,6,1,0.5834312,,,,
37,33500,1,2,-2,-2,4,6,45,542,6,1,0.4833514,,,,
37,132100,2,1,-2,2,0,6,45,543,6,1,0.5166887,,,,
37,37100,2,2,-2,-2,4,6,45,544,6,1,0.5333568,,,,
37,109100,2,2,2,2,4,6,45,545,6,1,0.4666831,,,,
37,162100,2,2,-2,-2,4,5,0,546,5,1,1.0001163,,,,
37,18500,1,1,2,-2,0,5,0,547,5,1,1.1860823,,,,
37,73100,2,2,-2,2,0,6,45,548,6,1,0.5334084,,,,
37,66100,2,2,-2,2,0,6,45,549,6,1,0.4668032,,,,
37,21500,1,2,-2,2,0,5,0,550,5,1,0.7832945,,,,
37,143100,2,1,-2,2,0,6,45,551,6,1,1.2833981,,,,
37,142100,2,2,-2,2,0,5,0,552,5,1,0.9334425,,,,
37,126100,2,2,2,2,4,5,0,553,5,1,0.5500325,,,,
37,73100,2,1,2,2,4,6,45,554,6,1,0.4668024,,,,
37,69100,2,1,2,2,4,6,45,555,6,1,0.4334058,,,,
37,115100,2,2,2,-2,0,6,45,556,6,1,0.6001338,,,,
37,61100,2,2,-2,2,0,6,45,557,6,1,0.5499943,,,,
37,92500,1,1,-2,2,0,6,45,558,6,1,0.4334586,,,,
37,1100,2,2,-2,2,0,5,0,559,5,1,0.4838642,,,,
37,86100,2,2,2,-2,0,5,0,560,5,1,0.4833772,,,,
37,41100,2,2,2,-2,0,5,0,561,5,1,0.4166294,,,,
37,31500,1,1,-2,-2,4,6,45,562,6,1,0.4666192,,,,
37,116100,2,1,2,2,4,5,0,563,5,1,0.5000322,,,,
37,31100,2,1,-2,2,0,5,0,564,5,1,0.5668047,,,,
37,104500,1,2,2,2,4,5,0,565,5,1,0.4666945,,,,
37,29100,2,1,-2,-2,4,6,45,566,6,1,0.5001316,,,,
37,124100,2,2,2,-2,0,6,45,567,6,1,0.4001155,,,,
38,109100,2,2,2,-2,0,6,45,0,6,1,0.633398,,,,
38,4500,1,1,2,-2,0,5,0,1,5,1,0.5667879,,,,
38,23100,2,1,2,2,4,6,45,2,6,1,0.5001204,,,,
38,101500,1,1,-2,-2,4,6,45,3,6,1,0.8166371,,,,
38,105500,1,2,2,2,4,5,0,4,5,1,0.5833179,,,,
38,100100,2,1,-2,2,0,6,45,5,6,1,0.5500128,,,,
38,1100,2,1,-2,-2,4,6,45,6,6,1,0.6501055,,,,
38,125100,2,1,2,-2,0,5,0,7,5,1,0.6667097,,,,
38,93100,2,2,2,2,4,5,0,8,5,1,0.6843073,,,,
38,136100,2,1,-2,-2,4,5,0,9,5,1,0.6167815,,,,
38,76100,2,1,-2,-2,4,6,45,10,6,1,0.583386,,,,
38,10100,2,1,-2,2,0,6,45,11,6,1,0.7000336,,,,
38,117100,2,1,-2,2,0,6,45,12,6,1,0.4832886,,,,
38,92500,1,2,2,-2,0,6,45,13,5,0,0.7834301,,,,
38,60100,2,1,2,2,4,6,45,14,6,1,0.6001236,,,,
38,57100,2,1,-2,2,0,5,0,15,5,1,0.6000619,,,,
38,161100,2,1,-2,-2,4,6,45,16,6,1,0.6000401,,,,
38,94100,2,2,-2,-2,4,5,0,17,5,1,0.6501247,,,,
38,28100,2,2,2,2,4,5,0,18,5,1,0.6333698,,,,
38,140500,1,1,-2,-2,4,5,0,19,5,1,0.5333855,,,,
38,81100,2,1,-2,2,0,5,0,20,5,1,0.633454,,,,
38,45100,2,2,-2,2,0,6,45,21,6,1,0.6500475,,,,
38,20100,2,2,2,2,4,6,45,22,6,1,0.6167896,,,,
38,150100,2,2,2,2,4,5,0,23,5,1,0.5834353,,,,
38,72100,2,1,-2,-2,4,6,45,24,6,1,0.6167415,,,,
38,11100,2,1,-2,-2,4,6,45,25,6,1,0.6000175,,,,
38,13100,2,2,-2,2,0,5,0,26,5,1,0.5850047,,,,
38,10100,2,2,2,-2,0,6,45,27,6,1,0.6000639,,,,
38,68500,1,2,2,-2,0,6,45,28,6,1,0.5500342,,,,
38,92500,1,2,2,2,4,5,0,29,5,1,0.5666706,,,,
38,52100,2,1,-2,-2,4,5,0,30,5,1,0.3667036,,,,
38,172500,1,1,-2,-2,4,6,45,31,6,1,0.5000876,,,,
38,126100,2,2,2,-2,0,6,45,32,6,1,0.5500491,,,,
38,31100,2,1,-2,2,0,6,45,33,6,1,0.5334163,,,,
38,132100,2,1,-2,-2,4,6,45,34,6,1,0.6667253,,,,
38,94100,2,1,2,-2,0,5,0,35,5,1,0.8167403,,,,
38,33500,1,2,2,-2,0,6,45,36,6,1,0.5667569,,,,
38,36100,2,1,-2,2,0,6,45,37,6,1,0.5000388,,,,
38,27100,2,2,-2,-2,4,5,0,38,5,1,0.483392,,,,
38,5100,2,2,-2,-2,4,6,45,39,6,1,0.5172951,,,,
38,68500,1,1,-2,2,0,5,0,40,5,1,0.5667231,,,,
38,20100,2,1,-2,2,0,6,45,41,6,1,0.7833567,,,,
38,23100,2,1,2,-2,0,5,0,42,5,1,0.7687122,,,,
38,4500,1,2,-2,2,0,5,0,43,5,1,0.7666268,,,,
38,83100,2,1,2,2,4,6,45,44,6,1,0.5666262,,,,
38,172500,1,2,2,-2,0,6,45,45,6,1,0.7166453,,,,
38,29100,2,2,2,-2,0,5,0,46,5,1,0.6999859,,,,
38,7100,2,1,-2,-2,4,6,45,47,6,1,0.6167779,,,,
38,47100,2,1,-2,-2,4,5,0,48,5,1,0.6174512,,,,
38,93100,2,1,-2,2,0,5,0,49,5,1,0.6501175,,,,
38,29500,1,2,-2,-2,4,5,0,50,5,1,0.5834555,,,,
38,96100,2,2,2,2,4,5,0,51,5,1,0.5167851,,,,
38,150100,2,1,-2,-2,4,6,45,52,6,1,0.5500372,,,,
38,107100,2,1,-2,2,0,5,0,53,5,1,0.5001213,,,,
38,28100,2,1,-2,-2,4,6,45,54,6,1,0.5500515,,,,
38,8100,2,1,-2,-2,4,6,45,55,6,1,0.5500425,,,,
38,29100,2,1,-2,-2,4,5,0,56,5,1,0.5500992,,,,
38,158100,2,2,-2,2,0,5,0,57,5,1,0.5501003,,,,
38,172500,1,1,-2,2,0,6,45,58,6,1,0.5167566,,,,
38,38100,2,1,-2,2,0,5,0,59,5,1,0.5498922,,,,
38,9100,2,1,2,-2,0,6,45,60,6,1,0.4668035,,,,
38,41100,2,2,-2,-2,4,5,0,61,5,1,0.5833761,,,,
38,127100,2,2,2,-2,0,5,0,62,5,1,0.5166787,,,,
38,72100,2,2,2,2,4,5,0,63,5,1,0.4678448,,,,
38,138100,2,2,2,-2,0,5,0,64,5,1,0.4167953,,,,
38,95100,2,2,2,2,4,5,0,65,5,1,0.4334129,,,,
38,120100,2,2,2,-2,0,5,0,66,5,1,0.383416,,,,
38,42100,2,1,-2,2,0,6,45,67,6,1,0.4833667,,,,
38,132100,2,1,-2,2,0,6,45,68,6,1,0.4667693,,,,
38,138500,1,2,-2,-2,4,6,45,69,6,1,0.5334637,,,,
38,125500,1,1,-2,2,0,6,45,70,6,1,0.4516299,,,,
38,61100,2,2,2,2,4,6,45,71,6,1,0.5001293,,,,
38,56100,2,1,2,-2,0,6,45,72,6,1,0.433379,,,,
38,21500,1,1,2,-2,0,6,45,73,5,0,0.583469,,,,
38,27100,2,1,2,-2,0,6,45,74,6,1,0.6000338,,,,
38,49100,2,1,2,-2,0,5,0,75,5,1,0.5500264,,,,
38,25100,2,1,-2,2,0,5,0,76,5,1,0.5834679,,,,
38,116100,2,1,2,-2,0,5,0,77,5,1,0.5167168,,,,
38,104500,1,1,-2,-2,4,5,0,78,5,1,0.5168018,,,,
38,17100,2,2,2,2,4,5,0,79,5,1,0.5517739,,,,
38,56100,2,1,2,2,4,6,45,80,6,1,0.6167119,,,,
38,68100,2,1,2,2,4,5,0,81,5,1,0.6834134,,,,
38,152100,2,1,2,-2,0,5,0,82,5,1,0.5842087,,,,
38,36100,2,2,2,2,4,6,45,83,6,1,0.9000976,,,,
38,111100,2,1,2,2,4,6,45,84,6,1,0.4500909,,,,
38,22100,2,2,2,2,4,5,0,85,5,1,0.6000212,,,,
38,138500,1,2,-2,2,0,6,45,86,6,1,0.6334528,,,,
38,8100,2,2,2,2,4,6,45,87,6,1,0.5166408,,,,
38,117500,1,1,-2,2,0,5,0,88,5,1,0.6001289,,,,
38,105500,1,1,-2,2,0,5,0,89,5,1,0.533371,,,,
38,87100,2,2,-2,-2,4,5,0,90,5,1,0.4500232,,,,
38,79100,2,1,2,-2,0,6,45,91,6,1,0.5666416,,,,
38,49100,2,1,2,2,4,6,45,92,6,1,0.6000212,,,,
38,121100,2,2,-2,2,0,5,0,93,5,1,0.6500991,,,,
38,104500,1,2,2,-2,0,5,0,94,5,1,0.6000281,,,,
38,13100,2,2,-2,-2,4,6,45,95,6,1,0.6167578,,,,
38,81100,2,1,-2,-2,4,6,45,96,6,1,0.5333759,,,,
38,40100,2,1,-2,-2,4,6,45,97,6,1,0.6501159,,,,
38,130500,1,1,2,2,4,5,0,98,5,1,0.5333748,,,,
38,84100,2,2,2,2,4,6,45,99,6,1,0.6014431,,,,
38,77100,2,2,2,-2,0,6,45,100,6,1,0.8667097,,,,
38,161100,2,2,2,-2,0,5,0,101,5,1,0.6166913,,,,
38,128500,1,1,-2,2,0,5,0,102,5,1,0.6167094,,,,
38,127100,2,1,-2,-2,4,5,0,103,5,1,0.4166468,,,,
38,84100,2,2,2,-2,0,5,0,104,5,1,0.4667158,,,,
38,126100,2,2,2,2,4,6,45,105,6,1,0.7500358,,,,
38,100100,2,2,2,2,4,5,0,106,5,1,0.6333753,,,,
38,32100,2,2,2,2,4,6,45,107,6,1,0.6833917,,,,
38,107100,2,2,2,2,4,5,0,108,5,1,0.8833672,,,,
38,63500,1,2,2,-2,0,6,45,109,6,1,0.7500404,,,,
38,103500,1,2,-2,2,0,5,0,110,5,1,0.5668042,,,,
38,126100,2,1,-2,2,0,6,45,111,6,1,0.667291,,,,
38,122100,2,2,2,2,4,6,45,112,6,1,0.516794,,,,
38,75100,2,2,-2,2,0,5,0,113,5,1,0.6167747,,,,
38,125100,2,2,-2,2,0,5,0,114,5,1,0.6167555,,,,
38,108100,2,2,-2,2,0,6,45,115,6,1,0.6001223,,,,
38,52100,2,2,2,2,4,5,0,116,5,1,0.5167893,,,,
38,62100,2,1,-2,-2,4,5,0,117,5,1,0.61678,,,,
38,122100,2,2,2,-2,0,6,45,118,6,1,0.6167007,,,,
38,104500,1,2,2,2,4,6,45,119,6,1,0.5667014,,,,
38,41500,1,2,-2,-2,4,6,45,120,6,1,0.5000228,,,,
38,27100,2,2,-2,2,0,6,45,121,6,1,0.4333251,,,,
38,70100,2,2,2,2,4,6,45,122,6,1,0.5167793,,,,
38,75100,2,1,2,-2,0,5,0,123,5,1,0.9500372,,,,
38,68500,1,1,-2,-2,4,5,0,124,5,1,0.4501323,,,,
38,62100,2,2,2,-2,0,6,45,125,6,1,0.5833995,,,,
38,13100,2,1,2,-2,0,5,0,126,5,1,0.5500365,,,,
38,108100,2,1,2,2,4,6,45,127,6,1,0.5167633,,,,
38,3100,2,2,2,2,4,5,0,128,5,1,0.4834304,,,,
38,131500,1,1,-2,2,0,5,0,129,5,1,0.4834064,,,,
38,43100,2,2,2,-2,0,5,0,130,5,1,0.4667552,,,,
38,94100,2,1,2,2,4,6,45,131,6,1,0.4341538,,,,
38,124100,2,1,-2,-2,4,5,0,132,5,1,0.4500899,,,,
38,69500,1,1,2,-2,0,5,0,133,5,1,0.400065,,,,
38,152100,2,2,-2,2,0,5,0,134,5,1,0.5167058,,,,
38,105100,2,1,2,2,4,6,45,135,6,1,0.5000421,,,,
38,29100,2,2,2,2,4,5,0,136,5,1,0.3501359,,,,
38,28100,2,1,-2,2,0,5,0,137,5,1,0.5000347,,,,
38,63100,2,1,2,-2,0,6,45,138,6,1,0.5517839,,,,
38,70100,2,1,-2,2,0,5,0,139,5,1,0.4834282,,,,
38,5100,2,1,2,2,4,5,0,140,5,1,0.3834276,,,,
38,107100,2,1,-2,-2,4,6,45,141,5,0,0.3667581,,,,
38,138500,1,1,2,2,4,6,45,142,6,1,0.4833939,,,,
38,38100,2,2,2,2,4,5,0,143,5,1,0.516631,,,,
38,146100,2,1,-2,2,0,5,0,144,5,1,0.6847299,,,,
38,143100,2,1,-2,2,0,6,45,145,6,1,0.4000425,,,,
38,25100,2,2,2,2,4,5,0,146,5,1,0.5167324,,,,
38,8100,2,2,2,-2,0,5,0,147,5,1,0.4000576,,,,
38,31100,2,2,2,2,4,6,45,148,6,1,0.4333667,,,,
38,71100,2,1,2,-2,0,6,45,149,6,1,0.550024,,,,
38,108500,1,2,-2,-2,4,5,0,150,5,1,0.633368,,,,
38,162100,2,2,2,-2,0,6,45,151,6,1,0.5167024,,,,
38,68500,1,2,2,2,4,5,0,152,5,1,0.5166955,,,,
38,125500,1,1,-2,-2,4,5,0,153,5,1,0.4333683,,,,
38,31100,2,1,-2,-2,4,5,0,154,5,1,0.4666905,,,,
38,4100,2,1,-2,-2,4,6,45,155,6,1,0.4666802,,,,
38,55100,2,2,2,-2,0,6,45,156,6,1,0.5001399,,,,
38,94100,2,2,-2,2,0,6,45,157,6,1,0.3833857,,,,
38,37100,2,1,2,-2,0,6,45,158,5,0,0.4000163,,,,
38,30100,2,1,2,2,4,5,0,159,5,1,0.6340833,,,,
38,110100,2,1,-2,2,0,5,0,160,5,1,0.5000585,,,,
38,83100,2,2,-2,2,0,6,45,161,6,1,0.5000859,,,,
38,26100,2,1,-2,-2,4,5,0,162,5,1,1.3333346,,,,
38,29100,2,1,-2,2,0,5,0,163,5,1,0.5166926,,,,
38,115100,2,2,2,-2,0,5,0,164,5,1,0.4834673,,,,
38,138100,2,1,-2,2,0,5,0,165,5,1,0.466766,,,,
38,57100,2,2,2,-2,0,6,45,166,6,1,0.6667549,,,,
38,41500,1,1,2,2,4,6,45,167,6,1,0.6667972,,,,
38,141500,1,1,-2,-2,4,6,45,168,6,1,0.5500121,,,,
38,98100,2,1,2,2,4,5,0,169,5,1,0.5005105,,,,
38,76100,2,1,-2,2,0,5,0,170,5,1,0.4167615,,,,
38,33100,2,1,2,-2,0,5,0,171,5,1,0.5001211,,,,
38,12500,1,2,2,-2,0,5,0,172,5,1,0.3500195,,,,
38,18100,2,1,2,-2,0,6,45,173,6,1,0.4500451,,,,
38,69500,1,2,-2,-2,4,5,0,174,5,1,0.5501163,,,,
38,117500,1,1,-2,-2,4,5,0,175,5,1,0.5667941,,,,
38,117500,1,2,2,2,4,6,45,176,6,1,0.466695,,,,
38,22100,2,1,-2,-2,4,5,0,177,5,1,0.4666917,,,,
38,157100,2,2,2,-2,0,5,0,178,5,1,0.4667238,,,,
38,143100,2,2,2,2,4,6,45,179,6,1,0.4833906,,,,
38,144100,2,2,-2,2,0,5,0,180,5,1,0.5834262,,,,
38,96100,2,2,2,-2,0,6,45,181,6,1,0.5334297,,,,
38,141500,1,2,2,-2,0,5,0,182,5,1,0.5667766,,,,
38,1100,2,2,2,2,4,5,0,183,5,1,0.900035,,,,
38,131100,2,1,-2,2,0,6,45,184,6,1,0.4000406,,,,
38,11100,2,1,-2,2,0,6,45,185,6,1,0.4001342,,,,
38,131500,1,2,2,2,4,5,0,186,5,1,0.4349071,,,,
38,73100,2,2,2,2,4,6,45,187,6,1,0.6166968,,,,
38,123500,1,2,-2,2,0,6,45,188,6,1,0.5333416,,,,
38,130500,1,2,-2,2,0,5,0,189,5,1,0.5167234,,,,
38,29500,1,1,2,2,4,5,0,190,5,1,0.5166985,,,,
38,110100,2,1,-2,-2,4,5,0,191,5,1,0.4833733,,,,
38,143100,2,2,2,-2,0,6,45,192,6,1,0.5334572,,,,
38,108500,1,1,2,2,4,6,45,193,6,1,0.4833768,,,,
38,52100,2,1,-2,2,0,5,0,194,5,1,0.566707,,,,
38,32100,2,1,-2,-2,4,6,45,195,6,1,0.6668042,,,,
38,113100,2,1,-2,2,0,5,0,196,5,1,0.5501326,,,,
38,109100,2,2,2,2,4,5,0,197,5,1,0.516719,,,,
38,77100,2,1,-2,-2,4,5,0,198,5,1,1.0174379,,,,
38,3100,2,2,2,-2,0,6,45,199,6,1,0.916935,,,,
38,26100,2,2,2,2,4,5,0,200,5,1,0.5667919,,,,
38,41100,2,1,2,2,4,6,45,201,6,1,0.6667442,,,,
38,100100,2,2,2,-2,0,5,0,202,5,1,0.8667645,,,,
38,116100,2,2,-2,2,0,5,0,203,5,1,0.7167276,,,,
38,162100,2,1,-2,2,0,5,0,204,5,1,0.450024,,,,
38,142100,2,1,-2,2,0,6,45,205,6,1,0.5000366,,,,
38,38100,2,2,2,-2,0,5,0,206,5,1,0.4681323,,,,
38,150100,2,2,2,-2,0,6,45,207,6,1,0.6501371,,,,
38,105100,2,2,-2,2,0,6,45,208,6,1,1.0834063,,,,
38,7100,2,2,2,2,4,5,0,209,5,1,0.5166406,,,,
38,128500,1,1,-2,-2,4,5,0,210,5,1,0.4001377,,,,
38,144100,2,2,-2,-2,4,5,0,211,5,1,0.3168294,,,,
38,152100,2,1,2,2,4,6,45,212,6,1,0.4666268,,,,
38,101500,1,1,-2,2,0,6,45,213,6,1,0.4000613,,,,
38,55100,2,1,-2,2,0,6,45,214,6,1,0.3833603,,,,
38,69100,2,1,-2,2,0,5,0,215,5,1,0.583364,,,,
38,101100,2,2,2,-2,0,5,0,216,5,1,0.4667017,,,,
38,136100,2,2,2,2,4,5,0,217,5,1,0.4168026,,,,
38,117100,2,2,2,-2,0,6,45,218,6,1,0.5667154,,,,
38,100100,2,1,-2,-2,4,5,0,219,5,1,0.5500243,,,,
38,120100,2,1,-2,-2,4,6,45,220,6,1,0.5333415,,,,
38,111100,2,1,2,-2,0,6,45,221,6,1,0.5176133,,,,
38,122100,2,1,-2,2,0,5,0,222,5,1,0.5834483,,,,
38,41100,2,2,-2,2,0,5,0,223,5,1,0.4669344,,,,
38,35100,2,2,2,-2,0,6,45,224,6,1,0.5333696,,,,
38,75100,2,2,-2,-2,4,6,45,225,6,1,0.5525741,,,,
38,132500,1,1,-2,2,0,6,45,226,6,1,0.5501288,,,,
38,69500,1,2,-2,2,0,6,45,227,6,1,0.4167999,,,,
38,26500,1,1,-2,-2,4,6,45,228,6,1,0.3833753,,,,
38,55100,2,2,2,2,4,5,0,229,5,1,0.5500436,,,,
38,161100,2,1,-2,2,0,6,45,230,6,1,0.5666994,,,,
38,144100,2,1,2,-2,0,6,45,231,6,1,0.4844028,,,,
38,40100,2,1,-2,2,0,6,45,232,6,1,0.7334091,,,,
38,124100,2,2,2,-2,0,5,0,233,5,1,0.4501364,,,,
38,26500,1,2,2,-2,0,5,0,234,5,1,0.3834166,,,,
38,126100,2,1,-2,-2,4,6,45,235,6,1,0.4833875,,,,
38,108500,1,1,2,-2,0,5,0,236,5,1,0.5166523,,,,
38,28100,2,2,2,-2,0,5,0,237,5,1,0.5516967,,,,
38,146100,2,2,2,2,4,6,45,238,6,1,0.5500911,,,,
38,141500,1,2,2,2,4,6,45,239,6,1,0.6334112,,,,
38,36100,2,1,-2,-2,4,6,45,240,6,1,0.5000239,,,,
38,134100,2,1,2,2,4,6,45,241,6,1,0.4168268,,,,
38,161100,2,2,2,2,4,6,45,242,6,1,0.3175447,,,,
38,141100,2,1,2,2,4,5,0,243,5,1,0.7167557,,,,
38,33500,1,1,-2,2,0,6,45,244,6,1,0.4666396,,,,
38,84100,2,1,-2,-2,4,5,0,245,5,1,0.4333631,,,,
38,95100,2,1,-2,2,0,5,0,246,5,1,0.5166999,,,,
38,22500,1,1,-2,-2,4,5,0,247,5,1,0.4001303,,,,
38,25100,2,1,-2,-2,4,5,0,248,5,1,0.45003,,,,
38,117500,1,2,2,-2,0,5,0,249,5,1,0.3833706,,,,
38,93100,2,2,2,-2,0,6,45,250,6,1,0.5833629,,,,
38,80100,2,1,-2,-2,4,5,0,251,5,1,0.4666993,,,,
38,153100,2,1,-2,2,0,6,45,252,6,1,0.4667121,,,,
38,7100,2,1,-2,2,0,5,0,253,5,1,0.5834183,,,,
38,63100,2,2,-2,-2,4,6,45,254,6,1,0.4834386,,,,
38,43100,2,1,-2,-2,4,6,45,255,6,1,0.5000496,,,,
38,87100,2,1,2,2,4,6,45,256,6,1,0.533326,,,,
38,66100,2,2,2,-2,0,6,45,257,6,1,0.5000451,,,,
38,111100,2,2,-2,2,0,6,45,258,6,1,0.4834572,,,,
38,48100,2,2,2,2,4,5,0,259,5,1,1.699912,,,,
38,55100,2,1,-2,-2,4,5,0,260,5,1,0.4677389,,,,
38,18100,2,1,2,2,4,5,0,261,5,1,0.5172718,,,,
38,136100,2,1,-2,2,0,6,45,262,6,1,0.5166238,,,,
38,65100,2,1,-2,-2,4,5,0,263,5,1,0.4666345,,,,
38,96100,2,1,-2,-2,4,5,0,264,5,1,0.4334788,,,,
38,16100,2,2,2,-2,0,5,0,265,5,1,0.4500875,,,,
38,22100,2,1,-2,2,0,5,0,266,5,1,0.450022,,,,
38,80100,2,2,2,2,4,5,0,267,5,1,0.3833727,,,,
38,79100,2,1,2,2,4,6,45,268,6,1,0.4833711,,,,
38,30100,2,2,-2,-2,4,5,0,269,5,1,0.6834773,,,,
38,129100,2,2,-2,-2,4,6,45,270,6,1,0.7833754,,,,
38,2100,2,1,2,2,4,5,0,271,5,1,0.6333521,,,,
38,63500,1,2,2,2,4,6,45,272,6,1,0.9167288,,,,
38,73100,2,2,2,-2,0,5,0,273,5,1,0.5333838,,,,
38,66100,2,1,-2,2,0,6,45,274,6,1,0.4333495,,,,
38,157100,2,1,-2,2,0,5,0,275,5,1,0.6333768,,,,
38,92500,1,1,-2,2,0,5,0,276,5,1,0.5000417,,,,
38,106100,2,2,2,-2,0,6,45,277,5,0,0.4186091,,,,
38,41100,2,1,2,-2,0,5,0,278,5,1,0.8500504,,,,
38,17100,2,2,2,-2,0,5,0,279,5,1,0.4666579,,,,
38,152100,2,2,-2,-2,4,6,45,280,6,1,0.4167265,,,,
38,72100,2,1,-2,2,0,5,0,281,6,0,0.4679967,,,,
38,30100,2,1,2,-2,0,5,0,282,5,1,0.4186195,,,,
38,111100,2,2,-2,-2,4,6,45,283,6,1,0.4667041,,,,
38,108100,2,2,-2,-2,4,5,0,284,5,1,0.3834105,,,,
38,26100,2,2,2,-2,0,6,45,285,6,1,0.5842915,,,,
38,60100,2,2,-2,2,0,6,45,286,6,1,0.4673039,,,,
38,45100,2,1,2,-2,0,6,45,287,6,1,0.6501227,,,,
38,158100,2,1,2,-2,0,6,45,288,6,1,0.4834045,,,,
38,105100,2,1,2,-2,0,5,0,289,5,1,0.5500161,,,,
38,104500,1,1,-2,2,0,6,45,290,6,1,0.5833345,,,,
38,9100,2,2,-2,-2,4,6,45,291,6,1,0.7833961,,,,
38,10100,2,1,-2,-2,4,6,45,292,6,1,0.4853738,,,,
38,125500,1,2,2,2,4,6,45,293,6,1,0.4667585,,,,
38,131100,2,2,2,2,4,5,0,294,5,1,0.5667578,,,,
38,173500,1,1,-2,-2,4,5,0,295,5,1,0.4500545,,,,
38,173500,1,2,2,-2,0,5,0,296,5,1,0.433407,,,,
38,27100,2,1,2,2,4,6,45,297,6,1,0.4669013,,,,
38,123500,1,1,2,-2,0,5,0,298,5,1,0.4666841,,,,
38,37100,2,2,-2,-2,4,5,0,299,5,1,0.5999715,,,,
38,91100,2,2,2,2,4,6,45,300,6,1,0.5516254,,,,
38,65100,2,2,2,-2,0,6,45,301,6,1,1.1000209,,,,
38,69500,1,1,2,2,4,6,45,302,6,1,0.5002345,,,,
38,93100,2,1,-2,-2,4,6,45,303,6,1,0.6000545,,,,
38,63100,2,2,-2,2,0,5,0,304,5,1,0.7500333,,,,
38,49100,2,2,-2,2,0,5,0,305,5,1,0.5343066,,,,
38,8100,2,1,-2,2,0,5,0,306,5,1,0.9338843,,,,
38,141100,2,2,-2,-2,4,6,45,307,6,1,0.5000502,,,,
38,75100,2,1,2,2,4,6,45,308,6,1,0.4500375,,,,
38,23100,2,2,-2,2,0,6,45,309,6,1,0.6334437,,,,
38,25100,2,2,2,-2,0,5,0,310,5,1,0.5334649,,,,
38,65100,2,2,2,2,4,5,0,311,5,1,1.0858341,,,,
38,131500,1,2,2,-2,0,6,45,312,6,1,0.4999946,,,,
38,35100,2,1,-2,-2,4,5,0,313,5,1,0.6514103,,,,
38,77100,2,1,-2,2,0,5,0,314,5,1,0.5000835,,,,
38,38100,2,1,-2,-2,4,6,45,315,6,1,1.0000249,,,,
38,116100,2,1,2,2,4,6,45,316,6,1,0.9001221,,,,
38,122100,2,1,-2,-2,4,5,0,317,5,1,0.5501119,,,,
38,65100,2,1,-2,2,0,5,0,318,5,1,0.5667537,,,,
38,79100,2,2,-2,-2,4,5,0,319,5,1,0.5000557,,,,
38,113100,2,1,-2,-2,4,5,0,320,5,1,0.3167189,,,,
38,31500,1,2,2,2,4,5,0,321,5,1,0.3834688,,,,
38,37100,2,2,-2,2,0,5,0,322,5,1,0.9167207,,,,
38,37100,2,1,2,2,4,5,0,323,5,1,0.4667674,,,,
38,124100,2,2,2,2,4,6,45,324,6,1,0.6000215,,,,
38,101100,2,1,-2,2,0,5,0,325,5,1,4.1832945,,,,
38,31500,1,2,2,-2,0,5,0,326,5,1,0.416794,,,,
38,71100,2,1,2,2,4,6,45,327,5,0,0.3667004,,,,
38,101500,1,2,2,-2,0,5,0,328,5,1,0.566693,,,,
38,91100,2,2,2,-2,0,5,0,329,5,1,0.4000432,,,,
38,106100,2,2,2,2,4,5,0,330,5,1,0.4501237,,,,
38,113100,2,2,2,-2,0,6,45,331,6,1,0.533428,,,,
38,129100,2,2,-2,2,0,5,0,332,5,1,0.9500426,,,,
38,20100,2,2,2,-2,0,6,45,333,6,1,0.5166508,,,,
38,36100,2,2,2,-2,0,6,45,334,6,1,0.551629,,,,
38,48100,2,2,2,-2,0,5,0,335,5,1,0.4833818,,,,
38,1100,2,2,2,-2,0,6,45,336,6,1,0.4834453,,,,
38,101100,2,1,-2,-2,4,6,45,337,6,1,0.4500461,,,,
38,141500,1,1,-2,2,0,5,0,338,5,1,0.5333697,,,,
38,162100,2,2,2,2,4,5,0,339,5,1,0.500057,,,,
38,45100,2,1,2,2,4,5,0,340,5,1,0.4666997,,,,
38,134100,2,2,-2,2,0,5,0,341,5,1,0.4834175,,,,
38,134100,2,2,-2,-2,4,6,45,342,6,1,0.500054,,,,
38,141100,2,2,-2,2,0,6,45,343,6,1,0.3340721,,,,
38,57100,2,1,-2,-2,4,6,45,344,6,1,0.466706,,,,
38,124100,2,1,-2,2,0,5,0,345,5,1,0.5501341,,,,
38,142100,2,2,2,2,4,5,0,346,5,1,0.4167924,,,,
38,153100,2,2,2,-2,0,5,0,347,5,1,0.4167203,,,,
38,98100,2,2,-2,2,0,5,0,348,5,1,0.5999758,,,,
38,5100,2,1,2,-2,0,5,0,349,5,1,0.4500295,,,,
38,115100,2,1,-2,2,0,6,45,350,6,1,0.467697,,,,
38,4100,2,2,2,2,4,6,45,351,6,1,0.4666921,,,,
38,106100,2,1,-2,-2,4,6,45,352,6,1,0.4835975,,,,
38,110100,2,2,2,2,4,6,45,353,6,1,0.5333453,,,,
38,86100,2,2,2,-2,0,5,0,354,5,1,0.5333767,,,,
38,87100,2,2,-2,2,0,5,0,355,5,1,0.850101,,,,
38,120100,2,2,2,2,4,6,45,356,6,1,0.4667907,,,,
38,66100,2,1,-2,-2,4,6,45,357,6,1,0.5167213,,,,
38,131100,2,2,2,-2,0,6,45,358,6,1,0.4667091,,,,
38,86100,2,1,-2,-2,4,6,45,359,6,1,0.5000271,,,,
38,86100,2,2,2,2,4,6,45,360,6,1,0.5344154,,,,
38,21500,1,1,2,2,4,5,0,361,5,1,0.6000457,,,,
38,98100,2,1,2,-2,0,5,0,362,5,1,0.5833958,,,,
38,47100,2,1,-2,2,0,6,45,363,6,1,1.7666652,,,,
38,31500,1,1,-2,-2,4,6,45,364,6,1,0.4833888,,,,
38,2100,2,1,2,-2,0,6,45,365,6,1,0.4834347,,,,
38,106100,2,1,-2,2,0,6,45,366,6,1,0.4667604,,,,
38,18500,1,2,2,-2,0,5,0,367,5,1,0.4167166,,,,
38,42100,2,2,2,2,4,5,0,368,5,1,0.5167899,,,,
38,12500,1,2,2,2,4,5,0,369,5,1,0.7000165,,,,
38,162100,2,1,-2,-2,4,6,45,370,5,0,0.4833868,,,,
38,146100,2,1,-2,-2,4,5,0,371,5,1,0.5500363,,,,
38,33100,2,2,-2,2,0,6,45,372,6,1,1.1333338,,,,
38,142100,2,1,-2,-2,4,5,0,373,5,1,0.8500486,,,,
38,73100,2,1,-2,-2,4,6,45,374,6,1,1.2667539,,,,
38,146100,2,2,2,-2,0,6,45,375,6,1,0.5500234,,,,
38,80100,2,1,-2,2,0,5,0,376,5,1,0.7000239,,,,
38,32100,2,2,2,-2,0,5,0,377,5,1,0.8167864,,,,
38,21500,1,2,-2,2,0,5,0,378,5,1,0.5006859,,,,
38,22100,2,2,2,-2,0,6,45,379,6,1,0.5167352,,,,
38,143100,2,1,-2,-2,4,6,45,380,6,1,0.4833648,,,,
38,121500,1,1,-2,-2,4,6,45,381,6,1,0.8500301,,,,
38,41500,1,1,2,-2,0,6,45,382,6,1,1.5165184,,,,
38,115100,2,1,-2,-2,4,5,0,383,5,1,0.500016,,,,
38,120100,2,1,-2,2,0,5,0,384,5,1,0.4667454,,,,
38,80100,2,2,2,-2,0,6,45,385,6,1,0.5515123,,,,
38,129100,2,1,2,-2,0,6,45,386,6,1,0.4833662,,,,
38,3100,2,1,-2,-2,4,6,45,387,6,1,0.6834376,,,,
38,121100,2,1,2,2,4,5,0,388,5,1,1.6834258,,,,
38,49100,2,2,-2,-2,4,6,45,389,6,1,0.4833703,,,,
38,71100,2,2,-2,-2,4,6,45,390,6,1,0.5167096,,,,
38,60100,2,1,2,-2,0,6,45,391,6,1,0.550121,,,,
38,127100,2,2,2,2,4,6,45,392,6,1,2.5000315,,,,
38,12500,1,1,-2,-2,4,5,0,393,5,1,0.5833625,,,,
38,69100,2,1,-2,-2,4,6,45,394,6,1,1.1000287,,,,
38,77100,2,2,2,2,4,6,45,395,6,1,0.4672051,,,,
38,123500,1,2,-2,-2,4,5,0,396,5,1,0.5667986,,,,
38,22500,1,2,2,-2,0,5,0,397,5,1,0.500056,,,,
38,107100,2,2,2,-2,0,5,0,398,5,1,0.5000984,,,,
38,157100,2,2,2,2,4,6,45,399,6,1,0.5000231,,,,
38,56100,2,2,-2,2,0,6,45,400,6,1,0.5668079,,,,
38,103500,1,1,2,-2,0,5,0,401,5,1,1.5000029,,,,
38,123500,1,1,2,2,4,6,45,402,6,1,0.551299,,,,
38,143500,1,2,-2,-2,4,6,45,403,6,1,0.6000277,,,,
38,157100,2,1,-2,-2,4,5,0,404,5,1,0.5687328,,,,
38,60100,2,2,-2,-2,4,5,0,405,5,1,0.7333996,,,,
38,58100,2,1,-2,2,0,5,0,406,5,1,0.8001241,,,,
38,121100,2,2,-2,-2,4,5,0,407,5,1,2.7165888,,,,
38,70100,2,2,2,-2,0,6,45,408,6,1,0.5333453,,,,
38,56100,2,2,-2,-2,4,5,0,409,5,1,0.5166211,,,,
38,17100,2,1,-2,-2,4,6,45,410,6,1,0.4833589,,,,
38,140500,1,1,-2,2,0,6,45,411,6,1,0.4833925,,,,
38,23100,2,2,-2,-2,4,6,45,412,6,1,0.450011,,,,
38,121100,2,1,2,-2,0,5,0,413,5,1,0.4006015,,,,
38,83100,2,1,2,-2,0,6,45,414,6,1,0.8182894,,,,
38,22500,1,1,-2,2,0,5,0,415,5,1,0.7166613,,,,
38,113100,2,2,2,2,4,5,0,416,5,1,3.5499655,,,,
38,132500,1,2,2,-2,0,5,0,417,5,1,0.3685592,,,,
38,173500,1,2,2,2,4,6,45,418,6,1,0.5500506,,,,
38,95100,2,1,-2,-2,4,6,45,419,6,1,0.5667158,,,,
38,18100,2,2,-2,2,0,5,0,420,5,1,0.4840674,,,,
38,48100,2,1,-2,2,0,5,0,421,5,1,0.3833843,,,,
38,47100,2,2,2,2,4,6,45,422,6,1,0.5834033,,,,
38,144100,2,1,2,2,4,6,45,423,6,1,0.4667334,,,,
38,45100,2,2,-2,-2,4,6,45,424,6,1,0.600039,,,,
38,138100,2,2,2,2,4,6,45,425,6,1,0.4666527,,,,
38,35100,2,1,-2,2,0,5,0,426,5,1,0.7000469,,,,
38,12500,1,1,-2,2,0,6,45,427,6,1,0.4667802,,,,
38,57100,2,2,2,2,4,6,45,428,6,1,0.6500319,,,,
38,63100,2,1,2,2,4,6,45,429,6,1,0.8842401,,,,
38,121500,1,1,-2,2,0,5,0,430,5,1,1.10009,,,,
38,40100,2,2,2,-2,0,6,45,431,6,1,0.5834554,,,,
38,69100,2,2,2,2,4,6,45,432,6,1,0.5167769,,,,
38,140500,1,2,2,-2,0,6,45,433,5,0,2.8500576,,,,
38,2100,2,2,-2,-2,4,5,0,434,5,1,0.5833788,,,,
38,58100,2,2,2,-2,0,5,0,435,5,1,0.6516331,,,,
38,92500,1,1,-2,-2,4,5,0,436,5,1,1.0333662,,,,
38,62100,2,1,-2,2,0,5,0,437,5,1,0.4667035,,,,
38,5100,2,2,-2,2,0,5,0,438,5,1,0.3500537,,,,
38,11100,2,2,2,2,4,6,45,439,6,1,0.483437,,,,
38,63500,1,1,-2,-2,4,6,45,440,6,1,0.5502307,,,,
38,105100,2,2,-2,-2,4,5,0,441,6,0,0.700077,,,,
38,143500,1,1,2,-2,0,6,45,442,6,1,0.7333516,,,,
38,3100,2,1,-2,2,0,5,0,443,5,1,0.5667076,,,,
38,125500,1,2,2,-2,0,5,0,444,5,1,0.6833717,,,,
38,52100,2,2,2,-2,0,6,45,445,6,1,3.1166752,,,,
38,30100,2,2,-2,2,0,6,45,446,6,1,0.5667041,,,,
38,129100,2,1,2,2,4,6,45,447,6,1,0.4333748,,,,
38,33500,1,2,2,2,4,6,45,448,6,1,0.3667118,,,,
38,105500,1,2,2,-2,0,6,45,449,6,1,0.5334061,,,,
38,132100,2,2,2,-2,0,6,45,450,6,1,0.516758,,,,
38,125100,2,2,-2,-2,4,6,45,451,6,1,0.5333386,,,,
38,4500,1,1,2,2,4,5,0,452,5,1,1.883439,,,,
38,4500,1,2,-2,-2,4,6,45,453,6,1,0.5166425,,,,
38,143500,1,1,2,2,4,5,0,454,5,1,0.5333793,,,,
38,153100,2,1,-2,-2,4,6,45,455,6,1,0.4833704,,,,
38,117100,2,1,-2,-2,4,5,0,456,5,1,0.6001478,,,,
38,131100,2,1,-2,-2,4,5,0,457,5,1,0.4333858,,,,
38,68100,2,2,-2,-2,4,6,45,458,6,1,0.7167174,,,,
38,33500,1,1,-2,-2,4,5,0,459,5,1,0.6167049,,,,
38,110100,2,2,2,-2,0,5,0,460,5,1,0.3834404,,,,
38,33100,2,1,2,2,4,6,45,461,6,1,0.5517676,,,,
38,68100,2,2,-2,2,0,6,45,462,5,0,1.3679016,,,,
38,17100,2,1,-2,2,0,5,0,463,5,1,0.5000564,,,,
38,9100,2,2,-2,2,0,6,45,464,6,1,0.5505616,,,,
38,58100,2,1,-2,-2,4,5,0,465,5,1,0.5167361,,,,
38,116100,2,2,-2,-2,4,6,45,466,5,0,0.1833764,,,,
38,108500,1,2,-2,2,0,5,0,467,5,1,0.4501324,,,,
38,109100,2,1,-2,-2,4,6,45,468,6,1,0.483382,,,,
38,136100,2,2,2,-2,0,5,0,469,5,1,0.5167247,,,,
38,7100,2,2,2,-2,0,6,45,470,6,1,0.5499705,,,,
38,84100,2,1,-2,2,0,6,45,471,6,1,0.3833907,,,,
38,20100,2,1,-2,-2,4,6,45,472,5,0,0.4000326,,,,
38,21500,1,2,-2,-2,4,6,45,473,6,1,0.6518104,,,,
38,26500,1,2,2,2,4,6,45,474,6,1,0.3833568,,,,
38,98100,2,2,-2,-2,4,5,0,475,5,1,0.4667584,,,,
38,47100,2,2,2,-2,0,5,0,476,5,1,0.483451,,,,
38,73100,2,1,-2,2,0,5,0,477,5,1,0.4833807,,,,
38,153100,2,2,2,2,4,6,45,478,6,1,0.4667435,,,,
38,29500,1,2,-2,2,0,5,0,479,5,1,0.4834208,,,,
38,86100,2,1,-2,2,0,5,0,480,5,1,0.3833434,,,,
38,26100,2,1,-2,2,0,6,45,481,6,1,0.4851925,,,,
38,11100,2,2,2,-2,0,6,45,482,6,1,0.5000538,,,,
38,43100,2,1,-2,2,0,6,45,483,6,1,0.7834589,,,,
38,158100,2,1,2,2,4,6,45,484,6,1,0.5167168,,,,
38,142100,2,2,2,-2,0,6,45,485,5,0,0.6000657,,,,
38,79100,2,2,-2,2,0,5,0,486,5,1,0.5500583,,,,
38,91100,2,1,-2,-2,4,6,45,487,6,1,2.3666407,,,,
38,29500,1,1,2,-2,0,6,45,488,6,1,0.5334679,,,,
38,134100,2,1,2,-2,0,6,45,489,6,1,0.4834766,,,,
38,140500,1,2,2,2,4,6,45,490,6,1,0.4334041,,,,
38,76100,2,2,2,2,4,6,45,491,6,1,0.4167931,,,,
38,32100,2,1,-2,2,0,6,45,492,6,1,0.4834592,,,,
38,128500,1,2,2,-2,0,6,45,493,6,1,0.4351641,,,,
38,63500,1,1,-2,2,0,5,0,494,5,1,0.500119,,,,
38,58100,2,2,2,2,4,5,0,495,5,1,0.434325,,,,
38,173500,1,1,-2,2,0,6,45,496,6,1,0.4501354,,,,
38,40100,2,2,2,2,4,6,45,497,6,1,0.3837502,,,,
38,158100,2,2,-2,-2,4,5,0,498,5,1,0.5667949,,,,
38,143500,1,2,-2,2,0,5,0,499,5,1,0.4668085,,,,
38,33100,2,2,-2,-2,4,6,45,500,6,1,0.5167009,,,,
38,101100,2,2,2,2,4,5,0,501,5,1,0.516765,,,,
38,16100,2,1,-2,-2,4,5,0,502,5,1,0.466774,,,,
38,103500,1,1,2,2,4,6,45,503,6,1,0.4834721,,,,
38,61100,2,1,-2,2,0,5,0,504,5,1,0.5500971,,,,
38,132100,2,2,2,2,4,5,0,505,5,1,0.5843545,,,,
38,81100,2,2,2,2,4,6,45,506,6,1,0.5000297,,,,
38,9100,2,1,2,2,4,5,0,507,5,1,0.78367,,,,
38,96100,2,1,-2,2,0,5,0,508,5,1,0.5000331,,,,
38,71100,2,2,-2,2,0,6,45,509,6,1,0.5167844,,,,
38,130500,1,1,2,-2,0,5,0,510,5,1,0.5500191,,,,
38,31500,1,1,-2,2,0,5,0,511,5,1,0.4333927,,,,
38,61100,2,1,-2,-2,4,5,0,512,5,1,0.4333803,,,,
38,150100,2,1,-2,2,0,6,45,513,6,1,0.4499868,,,,
38,66100,2,2,2,2,4,6,45,514,6,1,0.4333986,,,,
38,43100,2,2,2,2,4,6,45,515,6,1,0.3833355,,,,
38,108100,2,1,2,-2,0,6,45,516,6,1,0.5668029,,,,
38,42100,2,1,-2,-2,4,5,0,517,5,1,0.43347,,,,
38,127100,2,1,-2,2,0,5,0,518,5,1,0.4166945,,,,
38,22500,1,2,2,2,4,5,0,519,5,1,0.3499912,,,,
38,41500,1,2,-2,2,0,6,45,520,6,1,0.4500836,,,,
38,13100,2,1,2,2,4,5,0,521,5,1,0.5168045,,,,
38,121500,1,2,2,-2,0,6,45,522,6,1,0.5334674,,,,
38,4100,2,2,2,-2,0,5,0,523,5,1,0.5499765,,,,
38,105500,1,1,-2,-2,4,5,0,524,5,1,0.4333786,,,,
38,83100,2,2,-2,-2,4,5,0,525,5,1,0.5667406,,,,
38,35100,2,2,2,2,4,6,45,526,6,1,0.5678304,,,,
38,141100,2,1,2,-2,0,5,0,527,5,1,0.6334002,,,,
38,91100,2,1,-2,2,0,6,45,528,5,0,0.9333561,,,,
38,42100,2,2,2,-2,0,5,0,529,5,1,0.4001294,,,,
38,18100,2,2,-2,-2,4,5,0,530,5,1,0.5167821,,,,
38,2100,2,2,-2,2,0,6,45,531,6,1,0.4000336,,,,
38,132500,1,2,2,2,4,5,0,532,5,1,0.433469,,,,
38,172500,1,2,2,2,4,5,0,533,5,1,0.4000427,,,,
38,1100,2,1,-2,2,0,5,0,534,5,1,0.3833642,,,,
38,48100,2,1,-2,-2,4,6,45,535,6,1,0.53341,,,,
38,62100,2,2,2,2,4,6,45,536,6,1,0.5167307,,,,
38,121500,1,2,2,2,4,6,45,537,6,1,0.6173589,,,,
38,69100,2,2,2,-2,0,6,45,538,6,1,0.9501083,,,,
38,76100,2,2,2,-2,0,6,45,539,6,1,0.7000431,,,,
38,31100,2,2,2,-2,0,6,45,540,6,1,1.4000279,,,,
38,87100,2,1,2,-2,0,6,45,541,6,1,0.6334034,,,,
38,131500,1,1,-2,-2,4,6,45,542,6,1,0.4667301,,,,
38,117100,2,2,2,2,4,5,0,543,5,1,0.500039,,,,
38,16100,2,2,2,2,4,6,45,544,5,0,0.4333871,,,,
38,70100,2,1,-2,-2,4,5,0,545,5,1,0.5333958,,,,
38,4100,2,1,-2,2,0,6,45,546,6,1,0.5347387,,,,
38,61100,2,2,2,-2,0,5,0,547,5,1,0.6833639,,,,
38,72100,2,2,2,-2,0,6,45,548,6,1,0.5666778,,,,
38,95100,2,2,2,-2,0,5,0,549,5,1,1.9166921,,,,
38,10100,2,2,2,2,4,6,45,550,6,1,0.5333146,,,,
38,101500,1,2,2,2,4,5,0,551,5,1,0.6333919,,,,
38,138100,2,1,-2,-2,4,6,45,552,6,1,0.5167133,,,,
38,109100,2,1,-2,2,0,5,0,553,5,1,0.5500489,,,,
38,115100,2,2,2,2,4,5,0,554,5,1,0.4680248,,,,
38,138500,1,1,2,-2,0,5,0,555,5,1,0.533456,,,,
38,68100,2,1,2,-2,0,5,0,556,5,1,0.5333943,,,,
38,81100,2,2,2,-2,0,5,0,557,5,1,0.4167056,,,,
38,18500,1,1,-2,-2,4,5,0,558,5,1,0.4333914,,,,
38,16100,2,1,-2,2,0,6,45,559,6,1,0.466637,,,,
38,132500,1,1,-2,-2,4,5,0,560,5,1,0.4167354,,,,
38,103500,1,2,-2,-2,4,5,0,561,5,1,0.4166274,,,,
38,130500,1,2,-2,-2,4,6,45,562,6,1,0.4834767,,,,
38,18500,1,1,-2,2,0,5,0,563,5,1,0.4000516,,,,
38,128500,1,2,2,2,4,6,45,564,6,1,0.516727,,,,
38,26500,1,1,-2,2,0,5,0,565,5,1,0.5666713,,,,
38,125100,2,1,2,2,4,6,45,566,6,1,0.4001379,,,,
38,18500,1,2,2,2,4,6,45,567,6,1,0.4667392,,,,
39,43100,2,2,2,-2,0,5,45,0,5,1,1.9833004,,,,
39,22500,1,2,2,2,4,5,45,1,5,1,0.8000355,,,,
39,32100,2,2,-2,2,0,6,0,2,6,1,2.0833336,,,,
39,4100,2,2,2,2,4,6,0,3,6,1,1.216639,,,,
39,146100,2,2,2,2,4,5,45,4,5,1,0.9834479,,,,
39,81100,2,2,-2,-2,4,5,45,5,5,1,0.7001892,,,,
39,5100,2,2,-2,-2,4,6,0,6,6,1,1.3167652,,,,
39,68500,1,2,-2,2,0,6,0,7,6,1,2.2167406,,,,
39,105500,1,1,2,-2,0,5,45,8,5,1,1.1167682,,,,
39,75100,2,2,2,-2,0,6,0,9,6,1,0.9333775,,,,
39,70100,2,1,-2,2,0,6,0,10,6,1,1.2834277,,,,
39,33500,1,2,-2,2,0,6,0,11,6,1,1.0167642,,,,
39,56100,2,2,-2,2,0,5,45,12,5,1,1.4503856,,,,
39,11100,2,2,2,2,4,5,45,13,5,1,0.7667878,,,,
39,65100,2,1,-2,-2,4,5,45,14,5,1,1.0834195,,,,
39,94100,2,2,2,-2,0,6,0,15,6,1,1.2000192,,,,
39,60100,2,1,-2,-2,4,5,45,16,5,1,0.8853117,,,,
39,35100,2,1,2,-2,0,6,0,17,6,1,1.1347489,,,,
39,110100,2,1,2,2,4,6,0,18,6,1,1.3333462,,,,
39,161100,2,1,-2,-2,4,6,0,19,6,1,1.0837669,,,,
39,131100,2,1,2,-2,0,6,0,20,6,1,0.9333201,,,,
39,35100,2,1,2,2,4,6,0,21,6,1,0.8000222,,,,
39,69500,1,2,-2,-2,4,6,0,22,6,1,0.9667024,,,,
39,76100,2,2,-2,2,0,5,45,23,5,1,0.8350248,,,,
39,9100,2,1,-2,-2,4,6,0,24,6,1,1.9666145,,,,
39,146100,2,1,-2,-2,4,5,45,25,5,1,0.9833905,,,,
39,17100,2,2,-2,2,0,5,45,26,5,1,1.9666643,,,,
39,153100,2,2,-2,-2,4,6,0,27,6,1,1.6833148,,,,
39,63500,1,2,2,2,4,5,45,28,5,1,1.6332929,,,,
39,4100,2,1,-2,2,0,5,45,29,5,1,1.0167289,,,,
39,8100,2,2,-2,2,0,6,0,30,6,1,0.9167588,,,,
39,87100,2,1,2,-2,0,5,45,31,5,1,0.5500383,,,,
39,142100,2,1,2,-2,0,5,45,32,5,1,0.5666379,,,,
39,150100,2,2,-2,-2,4,6,0,33,6,1,1.4166296,,,,
39,38100,2,1,-2,-2,4,6,0,34,6,1,1.1500186,,,,
39,108500,1,2,-2,2,0,6,0,35,6,1,1.2333454,,,,
39,20100,2,2,-2,2,0,6,0,36,6,1,0.8666393,,,,
39,37100,2,1,2,2,4,5,45,37,5,1,1.1000109,,,,
39,143500,1,1,2,-2,0,6,0,38,6,1,1.7334239,,,,
39,92500,1,2,2,-2,0,5,45,39,5,1,1.1333063,,,,
39,138500,1,1,2,2,4,5,45,40,5,1,1.0167168,,,,
39,94100,2,1,-2,-2,4,6,0,41,6,1,1.6167697,,,,
39,12500,1,2,2,2,4,6,0,42,6,1,1.2666544,,,,
39,144100,2,2,-2,-2,4,6,0,43,6,1,0.8000434,,,,
39,57100,2,1,-2,-2,4,5,45,44,5,1,0.8667777,,,,
39,65100,2,2,2,2,4,6,0,45,6,1,1.3020582,,,,
39,95100,2,1,2,-2,0,5,45,46,5,1,1.0334325,,,,
39,11100,2,2,2,-2,0,6,0,47,6,1,1.133392,,,,
39,111100,2,2,2,2,4,6,0,48,6,1,1.0833708,,,,
39,29100,2,1,-2,-2,4,5,45,49,5,1,0.8334605,,,,
39,37100,2,2,-2,-2,4,5,45,50,5,1,0.7331528,,,,
39,108500,1,1,2,-2,0,5,45,51,5,1,0.5501329,,,,
39,63100,2,1,2,-2,0,5,45,52,5,1,0.6835593,,,,
39,2100,2,1,-2,-2,4,6,0,53,6,1,1.2333826,,,,
39,26100,2,1,2,2,4,5,45,54,5,1,1.1833673,,,,
39,84100,2,1,2,-2,0,5,45,55,5,1,1.3000953,,,,
39,76100,2,2,-2,-2,4,5,45,56,5,1,0.9833908,,,,
39,132100,2,2,2,-2,0,5,45,57,5,1,0.8333856,,,,
39,66100,2,1,2,-2,0,5,45,58,5,1,1.2167079,,,,
39,18100,2,2,2,-2,0,5,45,59,5,1,0.8678351,,,,
39,41500,1,1,2,-2,0,6,0,60,6,1,1.0333634,,,,
39,131100,2,2,-2,2,0,5,45,61,5,1,1.5501009,,,,
39,117500,1,1,-2,2,0,5,45,62,5,1,0.8834157,,,,
39,132500,1,2,-2,2,0,6,0,63,6,1,0.8501289,,,,
39,83100,2,2,2,2,4,6,0,64,6,1,0.8833993,,,,
39,136100,2,2,2,2,4,5,45,65,5,1,0.7667593,,,,
39,134100,2,1,2,-2,0,6,0,66,6,1,1.18336,,,,
39,47100,2,1,-2,2,0,5,45,67,5,1,0.8001272,,,,
39,9100,2,2,2,2,4,6,0,68,6,1,0.8500276,,,,
39,22500,1,1,-2,2,0,6,0,69,6,1,2.1334058,,,,
39,138500,1,2,-2,2,0,5,45,70,5,1,0.93413,,,,
39,27100,2,1,-2,-2,4,6,0,71,6,1,1.0850288,,,,
39,131100,2,1,2,2,4,5,45,72,5,1,0.7001055,,,,
39,11100,2,1,-2,2,0,6,0,73,6,1,0.8500187,,,,
39,63500,1,1,-2,-2,4,5,45,74,5,1,0.7500366,,,,
39,109100,2,1,-2,2,0,6,0,75,6,1,0.7520682,,,,
39,55100,2,2,2,2,4,5,45,76,5,1,0.7333618,,,,
39,138100,2,1,2,-2,0,5,45,77,5,1,0.7500182,,,,
39,143100,2,2,2,-2,0,5,45,78,5,1,0.8667836,,,,
39,58100,2,2,-2,-2,4,5,45,79,5,1,0.9001181,,,,
39,72100,2,2,2,2,4,5,45,80,5,1,0.6834516,,,,
39,31500,1,1,-2,2,0,6,0,81,6,1,1.2001151,,,,
39,42100,2,1,2,-2,0,5,45,82,5,1,0.9499707,,,,
39,70100,2,2,2,-2,0,5,45,83,5,1,0.75195,,,,
39,84100,2,1,2,2,4,5,45,84,5,1,0.9001139,,,,
39,26500,1,1,2,2,4,5,45,85,5,1,0.9342704,,,,
39,138500,1,1,2,-2,0,5,45,86,5,1,0.7667152,,,,
39,18100,2,1,-2,-2,4,6,0,87,6,1,0.9666766,,,,
39,58100,2,1,2,-2,0,6,0,88,6,1,0.7334507,,,,
39,29500,1,1,2,2,4,6,0,89,6,1,0.8833988,,,,
39,61100,2,1,2,2,4,6,0,90,6,1,0.7334118,,,,
39,121100,2,1,-2,2,0,5,45,91,5,1,0.6834041,,,,
39,105100,2,2,2,2,4,5,45,92,5,1,0.6333586,,,,
39,60100,2,2,2,-2,0,6,0,93,6,1,0.5834008,,,,
39,38100,2,2,2,-2,0,6,0,94,6,1,1.4999968,,,,
39,70100,2,2,2,2,4,5,45,95,5,1,0.6000424,,,,
39,113100,2,1,2,2,4,6,0,96,6,1,0.8334103,,,,
39,30100,2,2,-2,2,0,6,0,97,6,1,1.4500282,,,,
39,95100,2,2,-2,2,0,6,0,98,6,1,0.7166794,,,,
39,52100,2,1,2,2,4,6,0,99,6,1,0.6500369,,,,
39,142100,2,2,-2,2,0,5,45,100,5,1,0.6500387,,,,
39,36100,2,2,2,2,4,6,0,101,6,1,1.6000181,,,,
39,124100,2,2,2,-2,0,5,45,102,5,1,1.2667484,,,,
39,111100,2,2,2,-2,0,6,0,103,6,1,1.1666971,,,,
39,100100,2,1,-2,2,0,6,0,104,6,1,1.4167626,,,,
39,27100,2,2,2,2,4,6,0,105,6,1,1.6834314,,,,
39,69100,2,2,-2,-2,4,5,45,106,5,1,0.7179698,,,,
39,140500,1,2,2,-2,0,5,45,107,5,1,0.9501226,,,,
39,101500,1,1,2,-2,0,6,0,108,6,1,0.9333417,,,,
39,10100,2,1,2,-2,0,6,0,109,6,1,1.3834492,,,,
39,126100,2,1,-2,-2,4,5,45,110,5,1,0.9500284,,,,
39,13100,2,1,2,-2,0,6,0,111,6,1,0.9833694,,,,
39,158100,2,1,2,2,4,6,0,112,6,1,1.3166829,,,,
39,37100,2,1,2,-2,0,6,0,113,6,1,1.0679147,,,,
39,45100,2,1,2,2,4,5,45,114,5,1,0.6674414,,,,
39,123500,1,1,2,2,4,5,45,115,5,1,1.5000347,,,,
39,79100,2,1,2,-2,0,6,0,116,6,1,0.6167404,,,,
39,117100,2,1,-2,-2,4,6,0,117,6,1,1.1333206,,,,
39,31500,1,2,2,2,4,6,0,118,6,1,1.3500121,,,,
39,4500,1,2,-2,-2,4,5,45,119,5,1,1.0167416,,,,
39,125100,2,1,2,-2,0,6,0,120,6,1,0.700135,,,,
39,79100,2,1,2,2,4,6,0,121,6,1,1.0833892,,,,
39,83100,2,1,-2,2,0,5,45,122,5,1,0.5838412,,,,
39,81100,2,1,2,-2,0,5,45,123,5,1,1.8000941,,,,
39,125100,2,1,2,2,4,6,0,124,6,1,1.1333878,,,,
39,28100,2,2,-2,2,0,5,45,125,5,1,1.1166677,,,,
39,143500,1,2,-2,2,0,6,0,126,6,1,2.000013,,,,
39,143100,2,1,-2,2,0,5,45,127,5,1,1.0001757,,,,
39,76100,2,1,2,2,4,6,0,128,6,1,0.8673492,,,,
39,13100,2,2,-2,-2,4,6,0,129,6,1,1.3665997,,,,
39,2100,2,2,2,-2,0,6,0,130,6,1,0.7001047,,,,
39,150100,2,1,2,-2,0,6,0,131,6,1,1.0667667,,,,
39,125500,1,1,-2,-2,4,6,0,132,6,1,1.1514919,,,,
39,92500,1,1,-2,-2,4,6,0,133,6,1,0.8167232,,,,
39,113100,2,2,-2,-2,4,6,0,134,6,1,1.0333884,,,,
39,28100,2,1,2,2,4,6,0,135,6,1,1.100136,,,,
39,32100,2,1,2,2,4,6,0,136,6,1,0.6833486,,,,
39,61100,2,1,2,-2,0,5,45,137,5,1,1.0001219,,,,
39,113100,2,1,2,-2,0,5,45,138,5,1,0.7499951,,,,
39,128500,1,1,2,-2,0,6,0,139,6,1,1.483326,,,,
39,157100,2,2,2,2,4,6,0,140,6,1,1.0667707,,,,
39,141100,2,1,-2,2,0,5,45,141,5,1,0.7500426,,,,
39,86100,2,2,2,-2,0,5,45,142,5,1,0.616728,,,,
39,32100,2,1,2,-2,0,6,0,143,6,1,0.6501053,,,,
39,8100,2,1,2,-2,0,6,0,144,6,1,1.4332949,,,,
39,115100,2,1,-2,-2,4,6,0,145,6,1,0.7000398,,,,
39,77100,2,1,-2,2,0,6,0,146,6,1,1.2334406,,,,
39,121100,2,1,-2,-2,4,6,0,147,6,1,1.033417,,,,
39,31100,2,2,2,2,4,5,45,148,5,1,1.5333814,,,,
39,36100,2,2,2,-2,0,5,45,149,5,1,0.9667949,,,,
39,121500,1,2,-2,2,0,6,0,150,6,1,0.8166936,,,,
39,130500,1,2,-2,-2,4,6,0,151,6,1,1.1000149,,,,
39,79100,2,2,-2,-2,4,6,0,152,6,1,0.8499728,,,,
39,106100,2,2,-2,-2,4,5,45,153,5,1,1.2836289,,,,
39,29100,2,2,2,-2,0,5,45,154,5,1,1.3499448,,,,
39,69100,2,1,2,2,4,6,0,155,6,1,0.5833537,,,,
39,45100,2,2,-2,2,0,5,45,156,5,1,0.7000428,,,,
39,52100,2,2,-2,-2,4,6,0,157,6,1,0.7333801,,,,
39,173500,1,1,2,-2,0,6,0,158,6,1,1.0000061,,,,
39,158100,2,2,-2,2,0,6,0,159,6,1,1.2166911,,,,
39,105500,1,2,-2,2,0,6,0,160,6,1,0.5843684,,,,
39,26500,1,2,-2,2,0,6,0,161,6,1,0.6000497,,,,
39,9100,2,2,2,-2,0,5,45,162,5,1,0.7333718,,,,
39,20100,2,1,2,2,4,6,0,163,6,1,1.1014073,,,,
39,162100,2,1,2,2,4,6,0,164,6,1,0.9166986,,,,
39,43100,2,1,-2,2,0,5,45,165,5,1,0.6501588,,,,
39,22100,2,2,2,-2,0,5,45,166,5,1,0.6001219,,,,
39,116100,2,1,2,-2,0,6,0,167,6,1,0.9500206,,,,
39,172500,1,1,-2,2,0,5,45,168,5,1,0.983407,,,,
39,7100,2,2,2,2,4,6,0,169,6,1,0.8667749,,,,
39,113100,2,2,-2,2,0,6,0,170,6,1,1.1167776,,,,
39,62100,2,1,-2,-2,4,6,0,171,6,1,1.0001023,,,,
39,43100,2,2,2,2,4,5,45,172,5,1,1.083439,,,,
39,33100,2,1,-2,-2,4,5,45,173,5,1,0.8000284,,,,
39,22500,1,1,-2,-2,4,5,45,174,5,1,0.8667024,,,,
39,69500,1,1,2,-2,0,6,0,175,6,1,0.9334099,,,,
39,117100,2,2,2,2,4,6,0,176,6,1,1.1334104,,,,
39,31100,2,1,-2,2,0,5,45,177,5,1,0.7667105,,,,
39,157100,2,1,-2,2,0,6,0,178,6,1,0.7500078,,,,
39,61100,2,2,-2,2,0,5,45,179,5,1,1.1500649,,,,
39,107100,2,1,-2,-2,4,5,45,180,5,1,0.950009,,,,
39,93100,2,1,2,-2,0,6,0,181,6,1,0.8185193,,,,
39,96100,2,2,2,2,4,5,45,182,5,1,0.9667542,,,,
39,103500,1,2,-2,2,0,5,45,183,5,1,0.9343031,,,,
39,3100,2,2,-2,2,0,5,45,184,5,1,0.6333884,,,,
39,10100,2,2,-2,-2,4,5,45,185,5,1,1.1333434,,,,
39,143500,1,1,2,2,4,5,45,186,5,1,0.7001203,,,,
39,22500,1,2,2,-2,0,5,45,187,5,1,0.7001264,,,,
39,18100,2,1,-2,2,0,5,45,188,5,1,0.7500388,,,,
39,109100,2,2,2,-2,0,5,45,189,5,1,0.6185003,,,,
39,162100,2,2,-2,2,0,6,0,190,6,1,0.5180581,,,,
39,125500,1,2,2,2,4,6,0,191,6,1,0.4667864,,,,
39,125500,1,1,-2,2,0,5,45,192,5,1,0.6667121,,,,
39,152100,2,1,-2,-2,4,5,45,193,5,1,0.4667307,,,,
39,143500,1,2,-2,-2,4,6,0,194,6,1,0.6833896,,,,
39,125100,2,2,-2,-2,4,5,45,195,5,1,0.5667858,,,,
39,132100,2,1,-2,-2,4,6,0,196,6,1,0.9167054,,,,
39,103500,1,1,2,2,4,6,0,197,6,1,0.7001107,,,,
39,75100,2,2,2,2,4,6,0,198,6,1,0.61678,,,,
39,75100,2,1,-2,2,0,6,0,199,6,1,0.6168009,,,,
39,101500,1,2,-2,-2,4,5,45,200,5,1,0.7333291,,,,
39,132100,2,1,-2,2,0,6,0,201,6,1,0.5343777,,,,
39,7100,2,1,-2,2,0,5,45,202,5,1,0.850102,,,,
39,79100,2,2,-2,2,0,6,0,203,6,1,0.7666662,,,,
39,35100,2,2,-2,2,0,5,45,204,5,1,0.8834022,,,,
39,96100,2,1,-2,-2,4,6,0,205,6,1,0.5668013,,,,
39,18500,1,2,-2,-2,4,5,45,206,5,1,0.533414,,,,
39,33500,1,1,2,2,4,5,45,207,5,1,0.7333298,,,,
39,83100,2,1,-2,-2,4,6,0,208,6,1,0.566765,,,,
39,71100,2,1,2,-2,0,6,0,209,6,1,0.9334017,,,,
39,110100,2,2,-2,2,0,6,0,210,6,1,0.6334107,,,,
39,140500,1,2,2,2,4,6,0,211,6,1,0.6167521,,,,
39,30100,2,1,2,2,4,5,45,212,5,1,0.6001169,,,,
39,13100,2,1,2,2,4,6,0,213,6,1,1.3017977,,,,
39,25100,2,1,-2,-2,4,6,0,214,6,1,0.6667914,,,,
39,101100,2,1,2,2,4,5,45,215,5,1,0.4167899,,,,
39,61100,2,2,-2,-2,4,6,0,216,6,1,0.6000185,,,,
39,120100,2,2,-2,-2,4,5,45,217,5,1,0.7499513,,,,
39,58100,2,2,-2,2,0,6,0,218,6,1,0.5667252,,,,
39,42100,2,1,2,2,4,6,0,219,6,1,0.5667082,,,,
39,17100,2,1,2,2,4,6,0,220,6,1,0.5166552,,,,
39,16100,2,2,2,-2,0,5,45,221,5,1,0.5001076,,,,
39,130500,1,2,-2,2,0,5,45,222,5,1,0.5667852,,,,
39,128500,1,1,2,2,4,5,45,223,5,1,0.583378,,,,
39,47100,2,1,-2,-2,4,5,45,224,5,1,0.6833914,,,,
39,123500,1,1,2,-2,0,5,45,225,5,1,0.6338312,,,,
39,131100,2,2,-2,-2,4,6,0,226,6,1,0.6167148,,,,
39,31100,2,2,2,-2,0,6,0,227,6,1,1.0167709,,,,
39,23100,2,1,2,-2,0,6,0,228,6,1,1.4334438,,,,
39,26100,2,1,2,-2,0,6,0,229,6,1,0.633377,,,,
39,121500,1,2,-2,-2,4,5,45,230,5,1,0.7333654,,,,
39,105100,2,2,2,-2,0,6,0,231,6,1,0.583427,,,,
39,21500,1,2,-2,2,0,6,0,232,6,1,0.5833648,,,,
39,66100,2,2,-2,2,0,5,45,233,5,1,0.6000693,,,,
39,140500,1,1,-2,-2,4,5,45,234,5,1,0.5667979,,,,
39,26100,2,2,-2,2,0,6,0,235,6,1,0.5500896,,,,
39,138100,2,1,2,2,4,5,45,236,5,1,0.5834323,,,,
39,106100,2,1,2,-2,0,6,0,237,6,1,0.7001469,,,,
39,29100,2,2,2,2,4,5,45,238,5,1,0.4834098,,,,
39,120100,2,2,-2,2,0,5,45,239,5,1,0.5187105,,,,
39,121100,2,2,2,2,4,5,45,240,5,1,0.4855437,,,,
39,77100,2,2,2,-2,0,5,45,241,5,1,0.6017683,,,,
39,69500,1,2,-2,2,0,6,0,242,6,1,0.5353699,,,,
39,56100,2,1,2,-2,0,5,45,243,5,1,0.4666718,,,,
39,29100,2,1,-2,2,0,5,45,244,6,0,0.3834216,,,,
39,95100,2,1,2,2,4,6,0,245,6,1,1.2500417,,,,
39,60100,2,1,-2,2,0,6,0,246,6,1,0.566648,,,,
39,161100,2,1,-2,2,0,6,0,247,6,1,0.650231,,,,
39,2100,2,2,2,2,4,5,45,248,5,1,0.5834147,,,,
39,129100,2,1,-2,-2,4,5,45,249,5,1,0.6348396,,,,
39,4500,1,1,2,2,4,6,0,250,6,1,0.6500429,,,,
39,13100,2,2,-2,2,0,5,45,251,5,1,0.8167493,,,,
39,30100,2,2,-2,-2,4,5,45,252,5,1,0.6000492,,,,
39,108500,1,2,-2,-2,4,5,45,253,5,1,0.5500239,,,,
39,107100,2,2,2,2,4,6,0,254,6,1,0.5833676,,,,
39,92500,1,1,-2,2,0,5,45,255,5,1,0.6667036,,,,
39,27100,2,2,2,-2,0,6,0,256,6,1,0.6334799,,,,
39,101100,2,2,-2,2,0,6,0,257,6,1,1.0000069,,,,
39,23100,2,1,2,2,4,5,45,258,5,1,0.6667228,,,,
39,71100,2,2,-2,-2,4,5,45,259,5,1,0.6001257,,,,
39,121500,1,1,2,2,4,6,0,260,6,1,0.6167663,,,,
39,38100,2,2,2,2,4,5,45,261,5,1,0.5500394,,,,
39,11100,2,1,-2,-2,4,5,45,262,5,1,0.8518283,,,,
39,161100,2,2,2,-2,0,6,0,263,6,1,1.0001128,,,,
39,62100,2,2,2,-2,0,5,45,264,5,1,1.5501072,,,,
39,22100,2,1,-2,2,0,5,45,265,5,1,0.8000504,,,,
39,141500,1,2,-2,-2,4,6,0,266,6,1,0.4836904,,,,
39,4100,2,2,2,-2,0,5,45,267,5,1,0.5000211,,,,
39,98100,2,2,-2,2,0,5,45,268,5,1,0.6834034,,,,
39,49100,2,2,2,-2,0,6,0,269,6,1,0.4852737,,,,
39,28100,2,1,2,-2,0,6,0,270,6,1,0.6834106,,,,
39,20100,2,1,2,-2,0,6,0,271,6,1,0.9500429,,,,
39,103500,1,1,2,-2,0,5,45,272,5,1,0.5167923,,,,
39,93100,2,2,-2,2,0,5,45,273,5,1,0.5346495,,,,
39,94100,2,2,2,2,4,5,45,274,5,1,0.5500269,,,,
39,131500,1,1,-2,2,0,6,0,275,6,1,0.7000502,,,,
39,105100,2,1,-2,2,0,5,45,276,5,1,1.5001074,,,,
39,127100,2,1,2,-2,0,5,45,277,5,1,0.6500245,,,,
39,63500,1,2,2,-2,0,6,0,278,6,1,0.683389,,,,
39,108100,2,2,-2,-2,4,6,0,279,6,1,0.8834375,,,,
39,86100,2,1,-2,2,0,5,45,280,5,1,0.6500944,,,,
39,3100,2,2,-2,-2,4,5,45,281,5,1,1.1667776,,,,
39,87100,2,2,-2,2,0,6,0,282,6,1,0.6834477,,,,
39,41100,2,2,2,2,4,6,0,283,6,1,0.7499621,,,,
39,31100,2,1,-2,-2,4,6,0,284,6,1,0.7000222,,,,
39,7100,2,2,2,-2,0,6,0,285,6,1,0.5833885,,,,
39,29500,1,2,-2,-2,4,5,45,286,5,1,0.6167994,,,,
39,68100,2,1,-2,2,0,6,0,287,6,1,0.5834611,,,,
39,141500,1,1,2,2,4,6,0,288,6,1,0.5500231,,,,
39,132500,1,1,2,2,4,5,45,289,5,1,0.6000322,,,,
39,108100,2,1,2,2,4,6,0,290,5,0,0.8500331,,,,
39,162100,2,2,-2,-2,4,5,45,291,5,1,0.6833796,,,,
39,10100,2,2,-2,2,0,6,0,292,6,1,0.6334707,,,,
39,31500,1,2,2,-2,0,6,0,293,6,1,0.7667378,,,,
39,153100,2,1,2,-2,0,6,0,294,6,1,0.5834052,,,,
39,22100,2,2,2,2,4,5,45,295,5,1,0.584577,,,,
39,109100,2,1,-2,-2,4,6,0,296,6,1,0.4001204,,,,
39,91100,2,1,-2,-2,4,5,45,297,5,1,0.6500348,,,,
39,72100,2,1,-2,2,0,6,0,298,6,1,0.5834087,,,,
39,141500,1,2,-2,2,0,6,0,299,6,1,0.4833982,,,,
39,65100,2,1,-2,2,0,6,0,300,6,1,0.5501172,,,,
39,131500,1,2,2,2,4,6,0,301,6,1,0.6666205,,,,
39,28100,2,2,-2,-2,4,6,0,302,6,1,0.5501295,,,,
39,122100,2,1,2,2,4,5,45,303,5,1,0.55002,,,,
39,40100,2,2,-2,-2,4,5,45,304,5,1,0.7667014,,,,
39,94100,2,1,-2,2,0,6,0,305,6,1,0.6334373,,,,
39,116100,2,2,-2,2,0,6,0,306,6,1,0.416629,,,,
39,68500,1,1,2,2,4,5,45,307,5,1,0.5670662,,,,
39,104500,1,2,2,2,4,6,0,308,6,1,0.599972,,,,
39,10100,2,1,2,2,4,5,45,309,5,1,0.4667527,,,,
39,91100,2,2,2,-2,0,6,0,310,6,1,0.966793,,,,
39,81100,2,2,-2,2,0,5,45,311,5,1,0.7501127,,,,
39,158100,2,2,-2,-2,4,6,0,312,6,1,0.6500297,,,,
39,144100,2,1,2,-2,0,5,45,313,5,1,0.8500448,,,,
39,125100,2,2,-2,2,0,5,45,314,5,1,0.8333741,,,,
39,152100,2,2,2,2,4,5,45,315,5,1,0.6333527,,,,
39,131500,1,1,-2,-2,4,5,45,316,5,1,0.60013,,,,
39,48100,2,2,-2,-2,4,5,45,317,5,1,0.6167949,,,,
39,66100,2,2,-2,-2,4,5,45,318,5,1,0.6833776,,,,
39,107100,2,1,-2,2,0,5,45,319,5,1,0.7167517,,,,
39,101100,2,1,2,-2,0,6,0,320,6,1,0.6167381,,,,
39,47100,2,2,2,-2,0,5,45,321,5,1,0.8167489,,,,
39,104500,1,2,2,-2,0,5,45,322,5,1,0.8000257,,,,
39,70100,2,1,-2,-2,4,5,45,323,5,1,0.5500656,,,,
39,116100,2,1,2,2,4,5,45,324,5,1,0.6166428,,,,
39,130500,1,1,2,2,4,5,45,325,5,1,0.5166444,,,,
39,68500,1,1,2,-2,0,6,0,326,6,1,0.5834008,,,,
39,87100,2,2,-2,-2,4,6,0,327,6,1,0.6858145,,,,
39,68500,1,2,-2,-2,4,6,0,328,6,1,0.6000697,,,,
39,153100,2,1,2,2,4,5,45,329,5,1,0.6167347,,,,
39,17100,2,1,2,-2,0,5,45,330,5,1,0.983396,,,,
39,91100,2,2,2,2,4,6,0,331,6,1,0.616697,,,,
39,173500,1,1,2,2,4,5,45,332,5,1,0.6839373,,,,
39,55100,2,2,2,-2,0,6,0,333,6,1,1.000106,,,,
39,16100,2,2,2,2,4,6,0,334,6,1,0.5334063,,,,
39,93100,2,2,-2,-2,4,5,45,335,5,1,0.6166991,,,,
39,42100,2,2,-2,2,0,6,0,336,6,1,0.6167715,,,,
39,36100,2,1,-2,-2,4,5,45,337,5,1,0.9334228,,,,
39,132100,2,2,2,2,4,6,0,338,6,1,0.5667855,,,,
39,117100,2,2,2,-2,0,6,0,339,6,1,0.7845627,,,,
39,63100,2,1,2,2,4,5,45,340,5,1,0.5500354,,,,
39,41500,1,2,-2,-2,4,6,0,341,6,1,0.7167767,,,,
39,128500,1,2,-2,2,0,5,45,342,5,1,1.0167878,,,,
39,136100,2,2,2,-2,0,5,45,343,5,1,0.7334158,,,,
39,117500,1,1,-2,-2,4,5,45,344,5,1,0.550037,,,,
39,126100,2,2,2,2,4,5,45,345,5,1,0.6500924,,,,
39,172500,1,2,2,-2,0,5,45,346,5,1,1.4666971,,,,
39,141100,2,2,2,2,4,6,0,347,6,1,1.0679626,,,,
39,73100,2,1,2,-2,0,6,0,348,6,1,0.7177087,,,,
39,111100,2,1,-2,2,0,6,0,349,6,1,0.9668702,,,,
39,125500,1,2,2,-2,0,6,0,350,6,1,0.9167267,,,,
39,56100,2,1,2,2,4,5,45,351,5,1,0.5833708,,,,
39,87100,2,1,2,2,4,6,0,352,6,1,1.0844222,,,,
39,4500,1,2,-2,2,0,5,45,353,5,1,0.8834045,,,,
39,1100,2,1,2,-2,0,6,0,354,6,1,0.7182387,,,,
39,5100,2,1,2,-2,0,6,0,355,6,1,0.6667726,,,,
39,12500,1,1,-2,-2,4,5,45,356,5,1,0.6166251,,,,
39,20100,2,2,-2,-2,4,5,45,357,5,1,0.8177504,,,,
39,7100,2,1,-2,-2,4,5,45,358,5,1,0.5333725,,,,
39,8100,2,2,-2,-2,4,5,45,359,5,1,0.6500847,,,,
39,84100,2,2,-2,-2,4,5,45,360,5,1,0.500134,,,,
39,57100,2,2,2,2,4,5,45,361,5,1,0.5667569,,,,
39,140500,1,1,-2,2,0,6,0,362,6,1,0.616773,,,,
39,63500,1,1,-2,2,0,5,45,363,5,1,0.4834096,,,,
39,144100,2,2,-2,2,0,5,45,364,5,1,1.2833798,,,,
39,126100,2,2,2,-2,0,6,0,365,6,1,0.7833949,,,,
39,52100,2,1,2,-2,0,5,45,366,5,1,0.6667681,,,,
39,80100,2,1,-2,-2,4,5,45,367,5,1,0.76678,,,,
39,146100,2,2,2,-2,0,6,0,368,6,1,0.4834153,,,,
39,31500,1,1,-2,-2,4,5,45,369,5,1,0.6666495,,,,
39,108500,1,1,2,2,4,5,45,370,5,1,0.6499886,,,,
39,36100,2,1,-2,2,0,5,45,371,6,0,0.4334291,,,,
39,49100,2,1,-2,-2,4,5,45,372,5,1,0.7666914,,,,
39,142100,2,2,-2,-2,4,5,45,373,5,1,0.5334339,,,,
39,91100,2,1,-2,2,0,5,45,374,5,1,1.4166718,,,,
39,48100,2,2,-2,2,0,5,45,375,5,1,0.7333666,,,,
39,128500,1,2,-2,-2,4,6,0,376,6,1,1.0167193,,,,
39,71100,2,2,-2,2,0,5,45,377,5,1,0.6333623,,,,
39,121100,2,2,2,-2,0,6,0,378,6,1,0.9166361,,,,
39,66100,2,1,2,2,4,6,0,379,6,1,0.8001734,,,,
39,106100,2,1,2,2,4,5,45,380,5,1,1.1333491,,,,
39,122100,2,2,-2,-2,4,6,0,381,6,1,0.71845,,,,
39,132500,1,2,-2,-2,4,6,0,382,6,1,0.6500533,,,,
39,105500,1,2,-2,-2,4,6,0,383,6,1,0.483356,,,,
39,40100,2,2,-2,2,0,6,0,384,6,1,0.4834605,,,,
39,86100,2,1,-2,-2,4,5,45,385,5,1,0.7334565,,,,
39,104500,1,1,-2,2,0,5,45,386,5,1,1.1667332,,,,
39,12500,1,1,-2,2,0,6,0,387,6,1,0.6167274,,,,
39,40100,2,1,2,-2,0,6,0,388,6,1,1.9833577,,,,
39,109100,2,2,2,2,4,6,0,389,6,1,0.6000166,,,,
39,162100,2,1,2,-2,0,5,45,390,5,1,0.6333827,,,,
39,69100,2,1,2,-2,0,6,0,391,6,1,0.5833651,,,,
39,41100,2,1,-2,-2,4,6,0,392,6,1,0.6000187,,,,
39,134100,2,2,-2,-2,4,6,0,393,6,1,0.5511475,,,,
39,150100,2,2,-2,2,0,5,45,394,5,1,0.5175368,,,,
39,33100,2,2,2,2,4,6,0,395,6,1,0.6685101,,,,
39,23100,2,2,-2,2,0,6,0,396,6,1,1.2017091,,,,
39,81100,2,1,2,2,4,5,45,397,5,1,0.583367,,,,
39,25100,2,1,-2,2,0,6,0,398,6,1,0.6333934,,,,
39,117500,1,2,2,2,4,5,45,399,5,1,0.416721,,,,
39,57100,2,2,2,-2,0,5,45,400,5,1,0.9167578,,,,
39,80100,2,2,2,-2,0,5,45,401,5,1,0.4333712,,,,
39,56100,2,2,-2,-2,4,6,0,402,5,0,0.3680902,,,,
39,16100,2,1,-2,2,0,5,45,403,5,1,0.86679,,,,
39,41500,1,2,-2,2,0,5,45,404,5,1,1.0500294,,,,
39,76100,2,1,2,-2,0,5,45,405,5,1,0.6167937,,,,
39,127100,2,1,2,2,4,6,0,406,6,1,0.6333742,,,,
39,100100,2,2,2,-2,0,6,0,407,6,1,1.1180553,,,,
39,100100,2,1,-2,-2,4,6,0,408,6,1,2.4500969,,,,
39,38100,2,1,-2,2,0,6,0,409,6,1,0.9333772,,,,
39,42100,2,2,-2,-2,4,6,0,410,6,1,2.184208,,,,
39,129100,2,2,2,2,4,5,45,411,5,1,0.8833997,,,,
39,80100,2,1,-2,2,0,5,45,412,5,1,0.8666713,,,,
39,21500,1,2,-2,-2,4,6,0,413,6,1,0.900054,,,,
39,26500,1,1,2,-2,0,5,45,414,5,1,0.7167059,,,,
39,30100,2,1,2,-2,0,5,45,415,5,1,0.6834108,,,,
39,98100,2,2,-2,-2,4,6,0,416,6,1,1.5000906,,,,
39,110100,2,1,2,-2,0,5,45,417,5,1,1.1999974,,,,
39,37100,2,2,-2,2,0,6,0,418,6,1,0.6168236,,,,
39,43100,2,1,-2,-2,4,5,45,419,5,1,1.0667355,,,,
39,60100,2,2,2,2,4,6,0,420,6,1,1.0500583,,,,
39,47100,2,2,2,2,4,6,0,421,6,1,1.016779,,,,
39,73100,2,1,2,2,4,5,45,422,5,1,0.6167965,,,,
39,93100,2,1,2,2,4,6,0,423,6,1,0.9336621,,,,
39,161100,2,2,2,2,4,6,0,424,6,1,0.666696,,,,
39,65100,2,2,2,-2,0,6,0,425,6,1,1.2834075,,,,
39,8100,2,1,2,2,4,6,0,426,6,1,1.0167533,,,,
39,18500,1,1,2,-2,0,5,45,427,5,1,0.7334086,,,,
39,68100,2,1,-2,-2,4,5,45,428,5,1,0.8849806,,,,
39,83100,2,2,2,-2,0,6,0,429,6,1,0.635369,,,,
39,127100,2,2,-2,2,0,5,45,430,5,1,0.6834443,,,,
39,115100,2,2,2,2,4,6,0,431,6,1,1.250104,,,,
39,134100,2,1,2,2,4,6,0,432,6,1,0.650048,,,,
39,143100,2,2,2,2,4,6,0,433,6,1,0.4999934,,,,
39,136100,2,1,-2,-2,4,6,0,434,6,1,0.4833692,,,,
39,1100,2,2,-2,-2,4,6,0,435,6,1,0.4167,,,,
39,33500,1,1,2,-2,0,5,45,436,6,0,0.5167299,,,,
39,122100,2,1,2,-2,0,6,0,437,6,1,0.7001163,,,,
39,120100,2,1,2,2,4,5,45,438,5,1,0.6832956,,,,
39,116100,2,2,-2,-2,4,6,0,439,6,1,0.583375,,,,
39,86100,2,2,2,2,4,6,0,440,6,1,0.6333741,,,,
39,22100,2,1,-2,-2,4,5,45,441,5,1,0.5501368,,,,
39,142100,2,1,2,2,4,6,0,442,6,1,1.5165927,,,,
39,173500,1,2,-2,-2,4,5,45,443,5,1,0.7166924,,,,
39,117500,1,2,2,-2,0,6,0,444,6,1,0.7167588,,,,
39,117100,2,1,-2,2,0,6,0,445,6,1,1.2333695,,,,
39,101500,1,1,2,2,4,5,45,446,5,1,0.7667921,,,,
39,49100,2,1,-2,2,0,6,0,447,6,1,0.7834309,,,,
39,55100,2,1,-2,2,0,6,0,448,6,1,1.0834102,,,,
39,124100,2,1,-2,-2,4,6,0,449,6,1,0.5666511,,,,
39,5100,2,1,2,2,4,5,45,450,5,1,0.6334948,,,,
39,141500,1,1,2,-2,0,5,45,451,5,1,0.5666556,,,,
39,63100,2,2,-2,-2,4,5,45,452,5,1,0.5834097,,,,
39,123500,1,2,-2,-2,4,5,45,453,5,1,0.5168242,,,,
39,101100,2,2,-2,-2,4,6,0,454,6,1,0.9333132,,,,
39,105500,1,1,2,2,4,6,0,455,6,1,0.5334694,,,,
39,141100,2,1,-2,-2,4,5,45,456,5,1,0.5667309,,,,
39,100100,2,2,2,2,4,5,45,457,5,1,0.6167087,,,,
39,152100,2,2,2,-2,0,5,45,458,5,1,0.7334088,,,,
39,98100,2,1,2,2,4,5,45,459,5,1,0.7333525,,,,
39,29500,1,1,2,-2,0,6,0,460,5,0,0.6166426,,,,
39,96100,2,1,-2,2,0,6,0,461,5,0,0.7166995,,,,
39,3100,2,1,2,-2,0,5,45,462,5,1,0.6000485,,,,
39,152100,2,1,-2,2,0,6,0,463,6,1,0.7667771,,,,
39,95100,2,2,-2,-2,4,6,0,464,6,1,0.667885,,,,
39,33500,1,2,-2,-2,4,6,0,465,6,1,0.7167762,,,,
39,104500,1,1,-2,-2,4,5,45,466,5,1,0.5667847,,,,
39,138500,1,2,-2,-2,4,5,45,467,5,1,0.6334101,,,,
39,84100,2,2,-2,2,0,6,0,468,6,1,0.3834383,,,,
39,132500,1,1,2,-2,0,5,45,469,5,1,0.5333688,,,,
39,172500,1,1,-2,-2,4,5,45,470,5,1,0.6833589,,,,
39,124100,2,1,-2,2,0,5,45,471,6,0,0.4833984,,,,
39,73100,2,2,-2,-2,4,5,45,472,5,1,0.7347331,,,,
39,48100,2,1,2,2,4,5,45,473,5,1,0.6501122,,,,
39,101500,1,2,-2,2,0,5,45,474,5,1,0.7833248,,,,
39,96100,2,2,2,-2,0,5,45,475,5,1,0.6001316,,,,
39,5100,2,2,-2,2,0,5,45,476,5,1,0.633346,,,,
39,41500,1,1,2,2,4,5,45,477,5,1,0.5166965,,,,
39,144100,2,1,2,2,4,5,45,478,5,1,0.5167403,,,,
39,45100,2,1,2,-2,0,5,45,479,5,1,0.4833711,,,,
39,110100,2,2,-2,-2,4,5,45,480,5,1,0.5000692,,,,
39,68100,2,2,2,-2,0,5,45,481,5,1,0.5001262,,,,
39,124100,2,2,2,2,4,6,0,482,6,1,0.6333639,,,,
39,35100,2,2,-2,-2,4,5,45,483,5,1,0.5167391,,,,
39,49100,2,2,2,2,4,6,0,484,6,1,0.8006537,,,,
39,130500,1,1,2,-2,0,6,0,485,6,1,0.6667984,,,,
39,27100,2,1,-2,2,0,5,45,486,5,1,1.4166657,,,,
39,172500,1,2,2,2,4,5,45,487,5,1,0.5666404,,,,
39,52100,2,2,-2,2,0,6,0,488,6,1,0.7166793,,,,
39,17100,2,2,-2,-2,4,6,0,489,6,1,1.2334862,,,,
39,4100,2,1,-2,-2,4,5,45,490,5,1,0.6500532,,,,
39,1100,2,1,2,2,4,5,45,491,5,1,0.9026363,,,,
39,25100,2,2,2,2,4,6,0,492,6,1,0.6000463,,,,
39,58100,2,1,2,2,4,5,45,493,5,1,0.9334399,,,,
39,150100,2,1,2,2,4,5,45,494,5,1,0.6347773,,,,
39,9100,2,1,-2,2,0,5,45,495,5,1,0.5999982,,,,
39,106100,2,2,-2,2,0,5,45,496,5,1,0.600054,,,,
39,40100,2,1,2,2,4,6,0,497,6,1,0.7833929,,,,
39,138100,2,2,-2,2,0,6,0,498,6,1,0.8999676,,,,
39,77100,2,1,-2,-2,4,5,45,499,5,1,0.6167783,,,,
39,108100,2,2,-2,2,0,6,0,500,6,1,1.4333539,,,,
39,3100,2,1,2,2,4,6,0,501,6,1,0.7833806,,,,
39,18500,1,2,-2,2,0,5,45,502,5,1,0.616704,,,,
39,122100,2,2,-2,2,0,6,0,503,6,1,0.9166728,,,,
39,69100,2,2,-2,2,0,5,45,504,5,1,0.7167411,,,,
39,120100,2,1,2,-2,0,6,0,505,6,1,1.9500376,,,,
39,25100,2,2,2,-2,0,6,0,506,6,1,2.002545,,,,
39,153100,2,2,-2,2,0,6,0,507,6,1,0.5689384,,,,
39,157100,2,2,2,-2,0,5,45,508,5,1,0.6001276,,,,
39,26100,2,2,-2,-2,4,6,0,509,6,1,0.6167619,,,,
39,41100,2,2,2,-2,0,5,45,510,5,1,0.5179188,,,,
39,115100,2,2,2,-2,0,6,0,511,6,1,0.666782,,,,
39,158100,2,1,2,-2,0,5,45,512,5,1,0.4667211,,,,
39,77100,2,2,2,2,4,6,0,513,6,1,0.683427,,,,
39,33100,2,1,-2,2,0,5,45,514,5,1,0.7500246,,,,
39,157100,2,1,-2,-2,4,5,45,515,5,1,0.6501201,,,,
39,115100,2,1,-2,2,0,5,45,516,5,1,1.3847002,,,,
39,57100,2,1,-2,2,0,5,45,517,5,1,0.583354,,,,
39,103500,1,2,-2,-2,4,6,0,518,6,1,0.7001231,,,,
39,72100,2,2,2,-2,0,5,45,519,5,1,0.9167848,,,,
39,134100,2,2,-2,2,0,5,45,520,5,1,0.9833803,,,,
39,92500,1,2,2,2,4,6,0,521,6,1,1.0500512,,,,
39,62100,2,1,-2,2,0,6,0,522,6,1,0.7000264,,,,
39,2100,2,1,-2,2,0,6,0,523,6,1,0.700039,,,,
39,127100,2,2,-2,-2,4,5,45,524,5,1,0.6834444,,,,
39,21500,1,1,2,2,4,5,45,525,5,1,0.7167415,,,,
39,111100,2,1,-2,-2,4,6,0,526,6,1,1.3167826,,,,
39,23100,2,2,-2,-2,4,5,45,527,5,1,0.6684258,,,,
39,12500,1,2,2,-2,0,6,0,528,6,1,2.4833333,,,,
39,75100,2,1,-2,-2,4,5,45,529,5,1,0.6167079,,,,
39,73100,2,2,-2,2,0,6,0,530,6,1,0.4834601,,,,
39,18100,2,2,2,2,4,5,45,531,5,1,0.5834233,,,,
39,71100,2,1,2,2,4,5,45,532,5,1,0.733388,,,,
39,108100,2,1,2,-2,0,6,0,533,6,1,0.65013,,,,
39,105100,2,1,-2,-2,4,6,0,534,6,1,0.6167006,,,,
39,16100,2,1,-2,-2,4,6,0,535,6,1,1.1166897,,,,
39,62100,2,2,2,2,4,6,0,536,6,1,0.5667019,,,,
39,72100,2,1,-2,-2,4,5,45,537,5,1,0.4835799,,,,
39,18500,1,1,2,2,4,6,0,538,6,1,0.8167466,,,,
39,55100,2,1,-2,-2,4,6,0,539,6,1,0.53346,,,,
39,129100,2,1,-2,2,0,6,0,540,6,1,0.6358927,,,,
39,80100,2,2,2,2,4,5,45,541,5,1,0.6000205,,,,
39,121500,1,1,2,-2,0,6,0,542,6,1,0.733362,,,,
39,136100,2,1,-2,2,0,6,0,543,6,1,0.6166404,,,,
39,33100,2,2,2,-2,0,6,0,544,5,0,0.7666361,,,,
39,98100,2,1,2,-2,0,6,0,545,6,1,0.633323,,,,
39,45100,2,2,-2,-2,4,6,0,546,6,1,0.5166448,,,,
39,126100,2,1,-2,2,0,6,0,547,6,1,0.7000823,,,,
39,48100,2,1,2,-2,0,5,45,548,5,1,0.7500687,,,,
39,41100,2,1,-2,2,0,5,45,549,5,1,1.0001197,,,,
39,4500,1,1,2,-2,0,5,45,550,5,1,1.4834348,,,,
39,143100,2,1,-2,-2,4,5,45,551,5,1,0.666695,,,,
39,32100,2,2,-2,-2,4,6,0,552,6,1,0.9834005,,,,
39,123500,1,2,-2,2,0,6,0,553,6,1,1.4666952,,,,
39,138100,2,2,-2,-2,4,5,45,554,5,1,0.7000355,,,,
39,29500,1,2,-2,2,0,5,45,555,5,1,0.8167798,,,,
39,1100,2,2,-2,2,0,5,45,556,5,1,0.5166487,,,,
39,21500,1,1,2,-2,0,5,45,557,5,1,0.6167539,,,,
39,146100,2,1,-2,2,0,5,45,558,5,1,0.8000819,,,,
39,69500,1,1,2,2,4,5,45,559,5,1,1.1166857,,,,
39,141100,2,2,2,-2,0,5,45,560,5,1,0.550133,,,,
39,63100,2,2,-2,2,0,6,0,561,6,1,1.0334461,,,,
39,26500,1,2,-2,-2,4,6,0,562,6,1,1.2333793,,,,
39,131500,1,2,2,-2,0,5,45,563,5,1,0.7167149,,,,
39,173500,1,2,-2,2,0,6,0,564,6,1,0.6008258,,,,
39,107100,2,2,2,-2,0,5,45,565,5,1,0.5000303,,,,
39,68100,2,2,2,2,4,5,45,566,5,1,0.6667154,,,,
39,129100,2,2,2,-2,0,6,0,567,6,1,0.6167058,,,,
ID,cue_image,Face_Set_Code,Face_Type_Code,cue_position_x,target_position_x,conguruence,corAns,orientation,trials.thisN,Experiment_Trials_button.keys,Experiment_Trials_button.corr,Experiment_Trials_button.rt,,,,
40,128500,1,2,2,2,4,6,0,0,6,1,0.8667777,,,,
40,115100,2,1,-2,2,0,6,0,1,6,1,0.4500071,,,,
40,52100,2,2,2,2,4,5,45,2,5,1,0.5166367,,,,
40,91100,2,2,2,2,4,6,0,3,6,1,0.4333639,,,,
40,63100,2,1,2,-2,0,6,0,4,6,1,0.6001247,,,,
40,143100,2,2,2,-2,0,6,0,5,6,1,0.5000267,,,,
40,130500,1,1,2,2,4,6,0,6,6,1,0.484853,,,,
40,103500,1,1,2,2,4,6,0,7,6,1,0.4007039,,,,
40,150100,2,1,-2,2,0,5,45,8,5,1,0.5167017,,,,
40,105100,2,1,2,2,4,5,45,9,5,1,0.5333444,,,,
40,101500,1,1,-2,2,0,5,45,10,5,1,0.5848369,,,,
40,153100,2,1,-2,-2,4,5,45,11,5,1,0.4848924,,,,
40,106100,2,1,-2,2,0,6,0,12,6,1,0.5500289,,,,
40,92500,1,2,2,-2,0,6,0,13,5,0,0.5833556,,,,
40,157100,2,1,-2,-2,4,6,0,14,6,1,0.5666957,,,,
40,116100,2,1,2,-2,0,5,45,15,5,1,0.7001256,,,,
40,71100,2,2,-2,2,0,5,45,16,5,1,0.516813,,,,
40,18100,2,1,2,2,4,5,45,17,5,1,0.6000341,,,,
40,81100,2,1,-2,-2,4,6,0,18,6,1,0.4667929,,,,
40,125100,2,1,2,-2,0,6,0,19,6,1,0.7667459,,,,
40,132100,2,1,-2,-2,4,6,0,20,6,1,0.4500512,,,,
40,52100,2,2,2,-2,0,5,45,21,5,1,0.6167731,,,,
40,22500,1,2,2,-2,0,5,45,22,5,1,0.5666508,,,,
40,116100,2,2,-2,2,0,6,0,23,6,1,0.3834132,,,,
40,42100,2,2,2,-2,0,6,0,24,6,1,0.4834108,,,,
40,2100,2,1,2,2,4,5,45,25,5,1,0.400706,,,,
40,77100,2,2,2,-2,0,6,0,26,6,1,0.6000887,,,,
40,105500,1,1,-2,2,0,6,0,27,6,1,0.8184772,,,,
40,47100,2,2,2,-2,0,6,0,28,6,1,0.633387,,,,
40,28100,2,1,-2,-2,4,6,0,29,6,1,0.4666431,,,,
40,38100,2,2,2,2,4,5,45,30,5,1,0.6167386,,,,
40,121500,1,2,2,-2,0,6,0,31,6,1,0.4833919,,,,
40,9100,2,1,2,-2,0,6,0,32,6,1,0.4667787,,,,
40,111100,2,1,2,-2,0,5,45,33,5,1,0.5001104,,,,
40,42100,2,1,-2,2,0,5,45,34,5,1,0.5167333,,,,
40,121100,2,1,2,-2,0,5,45,35,5,1,0.4999893,,,,
40,66100,2,2,2,2,4,5,45,36,5,1,0.4503139,,,,
40,68100,2,1,2,-2,0,5,45,37,5,1,0.4514925,,,,
40,18500,1,1,-2,-2,4,6,0,38,6,1,0.4500367,,,,
40,33500,1,2,2,2,4,6,0,39,6,1,0.4334433,,,,
40,20100,2,2,2,-2,0,6,0,40,6,1,0.5833774,,,,
40,95100,2,1,-2,2,0,6,0,41,6,1,0.3833483,,,,
40,132100,2,2,2,-2,0,6,0,42,6,1,0.4500403,,,,
40,138100,2,2,2,2,4,5,45,43,5,1,0.4833787,,,,
40,16100,2,2,2,2,4,5,45,44,5,1,0.5001274,,,,
40,121100,2,2,-2,2,0,5,45,45,5,1,0.5834382,,,,
40,77100,2,1,-2,-2,4,5,45,46,5,1,0.4501271,,,,
40,47100,2,1,-2,2,0,5,45,47,5,1,0.4667012,,,,
40,94100,2,2,-2,-2,4,6,0,48,6,1,0.4667146,,,,
40,18100,2,2,-2,2,0,6,0,49,6,1,0.3501303,,,,
40,132100,2,1,-2,2,0,5,45,50,5,1,0.4517565,,,,
40,29500,1,1,2,2,4,5,45,51,5,1,0.550047,,,,
40,117100,2,1,-2,2,0,6,0,52,6,1,0.4848378,,,,
40,150100,2,1,-2,-2,4,5,45,53,5,1,0.5334698,,,,
40,72100,2,1,-2,-2,4,5,45,54,5,1,0.5499807,,,,
40,30100,2,2,-2,-2,4,5,45,55,5,1,0.4672427,,,,
40,10100,2,2,2,-2,0,5,45,56,5,1,0.4668152,,,,
40,172500,1,2,2,-2,0,6,0,57,6,1,0.433409,,,,
40,94100,2,1,2,2,4,5,45,58,6,0,0.4334073,,,,
40,141100,2,2,-2,2,0,5,45,59,5,1,0.5167611,,,,
40,33500,1,1,-2,-2,4,5,45,60,5,1,0.4167607,,,,
40,173500,1,2,2,-2,0,6,0,61,6,1,0.5351878,,,,
40,1100,2,1,-2,2,0,5,45,62,5,1,0.5166609,,,,
40,38100,2,1,-2,-2,4,6,0,63,6,1,0.466722,,,,
40,157100,2,2,2,-2,0,6,0,64,6,1,0.5500148,,,,
40,143500,1,2,-2,-2,4,6,0,65,6,1,0.6166424,,,,
40,104500,1,2,2,-2,0,5,45,66,5,1,0.4833813,,,,
40,31100,2,1,-2,-2,4,5,45,67,5,1,0.4000399,,,,
40,93100,2,2,2,-2,0,5,45,68,5,1,0.4166519,,,,
40,128500,1,1,-2,2,0,6,0,69,6,1,0.7000826,,,,
40,117100,2,2,2,-2,0,5,45,70,5,1,0.4333855,,,,
40,28100,2,1,-2,2,0,6,0,71,6,1,0.4666696,,,,
40,103500,1,2,-2,-2,4,5,45,72,5,1,0.4000485,,,,
40,105100,2,1,2,-2,0,5,45,73,5,1,0.450037,,,,
40,108500,1,1,2,2,4,5,45,74,5,1,0.5167583,,,,
40,21500,1,2,-2,2,0,5,45,75,5,1,0.400027,,,,
40,61100,2,1,-2,2,0,6,0,76,6,1,0.4500072,,,,
40,33500,1,1,-2,2,0,6,0,77,6,1,0.4000492,,,,
40,108100,2,1,2,2,4,5,45,78,5,1,0.6333619,,,,
40,138100,2,1,-2,2,0,6,0,79,6,1,0.6834519,,,,
40,86100,2,1,-2,-2,4,5,45,80,5,1,0.6833522,,,,
40,130500,1,2,-2,-2,4,6,0,81,5,0,0.4167815,,,,
40,42100,2,2,2,2,4,5,45,82,5,1,0.4667856,,,,
40,35100,2,2,2,2,4,6,0,83,6,1,0.4668271,,,,
40,108500,1,2,-2,-2,4,5,45,84,5,1,0.6333753,,,,
40,60100,2,2,-2,2,0,5,45,85,5,1,0.5834106,,,,
40,29100,2,2,2,2,4,5,45,86,6,0,0.5518075,,,,
40,121100,2,2,-2,-2,4,6,0,87,6,1,0.6175741,,,,
40,87100,2,1,2,-2,0,5,45,88,5,1,0.6334972,,,,
40,79100,2,1,2,-2,0,6,0,89,6,1,0.4018378,,,,
40,33100,2,1,2,-2,0,6,0,90,6,1,0.4333273,,,,
40,31100,2,1,-2,2,0,6,0,91,6,1,0.4334303,,,,
40,100100,2,1,-2,2,0,5,45,92,5,1,0.4000404,,,,
40,71100,2,1,2,2,4,5,45,93,5,1,0.6667538,,,,
40,95100,2,2,2,2,4,5,45,94,5,1,0.3833915,,,,
40,3100,2,2,2,2,4,6,0,95,6,1,0.5002314,,,,
40,128500,1,2,2,-2,0,6,0,96,6,1,0.5833999,,,,
40,101500,1,1,-2,-2,4,5,45,97,5,1,0.4849871,,,,
40,13100,2,1,2,2,4,5,45,98,5,1,0.4333745,,,,
40,104500,1,1,-2,-2,4,5,45,99,5,1,0.4834407,,,,
40,91100,2,1,-2,2,0,5,45,100,5,1,0.433457,,,,
40,138500,1,2,-2,-2,4,5,45,101,5,1,0.4001301,,,,
40,22500,1,1,-2,2,0,5,45,102,5,1,0.4501016,,,,
40,22100,2,1,-2,2,0,5,45,103,5,1,0.4501418,,,,
40,141500,1,1,-2,-2,4,5,45,104,5,1,0.4500373,,,,
40,70100,2,2,2,-2,0,5,45,105,5,1,0.4499925,,,,
40,106100,2,1,-2,-2,4,6,0,106,6,1,0.4850993,,,,
40,4500,1,2,-2,2,0,6,0,107,6,1,0.3834814,,,,
40,21500,1,1,2,2,4,5,45,108,5,1,0.4166156,,,,
40,49100,2,1,2,2,4,6,0,109,6,1,0.6000207,,,,
40,56100,2,1,2,2,4,6,0,110,6,1,0.4666186,,,,
40,18100,2,1,2,-2,0,6,0,111,5,0,0.4166356,,,,
40,95100,2,2,2,-2,0,6,0,112,5,0,0.4334435,,,,
40,7100,2,1,-2,2,0,5,45,113,5,1,0.6167588,,,,
40,28100,2,2,2,2,4,6,0,114,6,1,0.5501279,,,,
40,75100,2,2,-2,-2,4,5,45,115,5,1,0.4500307,,,,
40,123500,1,2,-2,2,0,5,45,116,5,1,0.5167897,,,,
40,26100,2,1,-2,2,0,5,45,117,5,1,0.5000407,,,,
40,107100,2,2,2,-2,0,5,45,118,5,1,0.5667179,,,,
40,132100,2,2,2,2,4,6,0,119,6,1,0.3999745,,,,
40,17100,2,2,2,-2,0,6,0,120,6,1,0.6180295,,,,
40,76100,2,2,2,-2,0,5,45,121,5,1,0.4500374,,,,
40,29500,1,2,-2,2,0,6,0,122,6,1,0.6334054,,,,
40,25100,2,1,-2,2,0,6,0,123,6,1,0.4001425,,,,
40,122100,2,1,-2,2,0,6,0,124,6,1,0.4166583,,,,
40,30100,2,1,2,-2,0,6,0,125,5,0,0.3171488,,,,
40,9100,2,2,-2,2,0,6,0,126,6,1,0.5333309,,,,
40,70100,2,2,2,2,4,5,45,127,6,0,0.4530954,,,,
40,5100,2,1,2,2,4,5,45,128,5,1,0.5501277,,,,
40,143100,2,1,-2,-2,4,6,0,129,6,1,0.4834179,,,,
40,125100,2,2,-2,-2,4,6,0,130,6,1,0.5334605,,,,
40,111100,2,2,-2,-2,4,5,45,131,5,1,0.4834063,,,,
40,71100,2,1,2,-2,0,5,45,132,6,0,0.5167597,,,,
40,16100,2,1,-2,-2,4,6,0,133,6,1,0.5000399,,,,
40,30100,2,1,2,2,4,6,0,134,6,1,0.5833948,,,,
40,141500,1,2,2,2,4,6,0,135,6,1,0.4666523,,,,
40,127100,2,1,-2,-2,4,5,45,136,5,1,0.383957,,,,
40,109100,2,1,-2,2,0,6,0,137,6,1,0.5334149,,,,
40,26500,1,2,2,2,4,6,0,138,6,1,0.4833721,,,,
40,141100,2,1,2,-2,0,6,0,139,6,1,0.6999844,,,,
40,91100,2,1,-2,-2,4,6,0,140,6,1,0.3833009,,,,
40,21500,1,1,2,-2,0,6,0,141,6,1,0.3834258,,,,
40,2100,2,2,-2,2,0,6,0,142,6,1,0.3834224,,,,
40,115100,2,2,2,2,4,5,45,143,5,1,0.4668062,,,,
40,68500,1,2,2,-2,0,6,0,144,6,1,0.4500439,,,,
40,144100,2,2,-2,-2,4,5,45,145,5,1,0.5018305,,,,
40,127100,2,2,2,2,4,5,45,146,5,1,0.7000407,,,,
40,10100,2,2,2,2,4,6,0,147,6,1,0.4840802,,,,
40,12500,1,1,-2,2,0,5,45,148,5,1,0.5834477,,,,
40,27100,2,1,2,-2,0,6,0,149,6,1,0.4500171,,,,
40,63100,2,2,-2,2,0,6,0,150,6,1,0.4834114,,,,
40,83100,2,2,-2,2,0,5,45,151,6,0,0.4000472,,,,
40,134100,2,2,-2,2,0,5,45,152,5,1,0.6333412,,,,
40,172500,1,1,-2,-2,4,6,0,153,6,1,0.5167531,,,,
40,66100,2,1,-2,-2,4,5,45,154,5,1,0.4333941,,,,
40,131100,2,2,2,2,4,5,45,155,5,1,0.4833593,,,,
40,11100,2,2,2,-2,0,6,0,156,6,1,0.466776,,,,
40,71100,2,2,-2,-2,4,5,45,157,5,1,0.4500185,,,,
40,76100,2,1,-2,-2,4,6,0,158,6,1,0.5351735,,,,
40,123500,1,1,2,2,4,6,0,159,5,0,0.5834546,,,,
40,111100,2,1,2,2,4,6,0,160,6,1,0.7500935,,,,
40,33100,2,2,-2,2,0,6,0,161,6,1,0.3833302,,,,
40,29500,1,1,2,-2,0,6,0,162,6,1,0.5666659,,,,
40,100100,2,1,-2,-2,4,5,45,163,5,1,0.533406,,,,
40,109100,2,2,2,2,4,6,0,164,6,1,0.7500262,,,,
40,57100,2,1,-2,2,0,5,45,165,5,1,0.5833133,,,,
40,127100,2,2,2,-2,0,5,45,166,5,1,0.683403,,,,
40,23100,2,2,-2,2,0,6,0,167,6,1,0.4666427,,,,
40,122100,2,2,2,2,4,5,45,168,5,1,0.6334027,,,,
40,157100,2,1,-2,2,0,5,45,169,5,1,0.5338504,,,,
40,65100,2,1,-2,-2,4,6,0,170,6,1,0.500123,,,,
40,132500,1,1,-2,-2,4,5,45,171,5,1,0.5667697,,,,
40,2100,2,2,-2,-2,4,6,0,172,6,1,0.5500415,,,,
40,93100,2,1,-2,-2,4,6,0,173,6,1,0.5001346,,,,
40,22100,2,1,-2,-2,4,6,0,174,6,1,0.4834229,,,,
40,61100,2,1,-2,-2,4,6,0,175,6,1,0.4167853,,,,
40,27100,2,2,-2,2,0,5,45,176,5,1,0.5500353,,,,
40,31100,2,2,2,-2,0,6,0,177,6,1,0.5166239,,,,
40,76100,2,1,-2,2,0,5,45,178,5,1,0.5333856,,,,
40,132500,1,1,-2,2,0,5,45,179,5,1,0.5348528,,,,
40,152100,2,2,-2,-2,4,6,0,180,6,1,0.4173556,,,,
40,152100,2,2,-2,2,0,6,0,181,6,1,0.4833628,,,,
40,104500,1,1,-2,2,0,5,45,182,5,1,0.5500783,,,,
40,33100,2,2,-2,-2,4,5,45,183,5,1,0.5999862,,,,
40,110100,2,1,-2,2,0,5,45,184,6,0,0.4167848,,,,
40,138100,2,1,-2,-2,4,5,45,185,5,1,0.4667255,,,,
40,58100,2,2,2,2,4,6,0,186,6,1,0.4167835,,,,
40,101500,1,2,2,2,4,5,45,187,5,1,0.5001257,,,,
40,129100,2,1,2,-2,0,6,0,188,6,1,0.4501508,,,,
40,55100,2,2,2,-2,0,5,45,189,5,1,0.4667127,,,,
40,140500,1,1,-2,-2,4,6,0,190,6,1,0.5500596,,,,
40,20100,2,1,-2,2,0,5,45,191,5,1,0.4508473,,,,
40,131500,1,2,2,-2,0,6,0,192,6,1,0.5667439,,,,
40,57100,2,2,2,-2,0,5,45,193,5,1,0.4667444,,,,
40,113100,2,2,2,2,4,5,45,194,5,1,0.5000535,,,,
40,7100,2,2,2,2,4,5,45,195,5,1,0.4672129,,,,
40,73100,2,2,2,2,4,6,0,196,6,1,0.5500454,,,,
40,61100,2,2,2,2,4,5,45,197,5,1,0.6001051,,,,
40,18100,2,2,-2,-2,4,5,45,198,5,1,0.5500858,,,,
40,4500,1,2,-2,-2,4,6,0,199,6,1,0.4834625,,,,
40,101100,2,1,-2,2,0,6,0,200,6,1,0.5167423,,,,
40,58100,2,2,2,-2,0,5,45,201,5,1,0.4667552,,,,
40,81100,2,1,-2,2,0,5,45,202,5,1,0.5167645,,,,
40,113100,2,1,-2,2,0,5,45,203,5,1,0.4333828,,,,
40,11100,2,1,-2,2,0,6,0,204,6,1,0.5167603,,,,
40,25100,2,2,2,2,4,5,45,205,5,1,0.5167371,,,,
40,31100,2,2,2,2,4,6,0,206,6,1,0.5667282,,,,
40,123500,1,1,2,-2,0,6,0,207,6,1,0.6500356,,,,
40,12500,1,1,-2,-2,4,6,0,208,6,1,0.5179,,,,
40,55100,2,1,-2,2,0,5,45,209,5,1,0.5834089,,,,
40,101100,2,2,2,-2,0,6,0,210,6,1,0.4333887,,,,
40,111100,2,2,-2,2,0,6,0,211,6,1,0.4667725,,,,
40,162100,2,2,2,-2,0,5,45,212,5,1,0.4167481,,,,
40,41100,2,1,2,-2,0,6,0,213,6,1,0.5001328,,,,
40,5100,2,2,-2,2,0,5,45,214,5,1,0.4334675,,,,
40,73100,2,1,-2,2,0,5,45,215,5,1,0.4833736,,,,
40,138500,1,1,2,-2,0,5,45,216,5,1,0.5834543,,,,
40,96100,2,2,2,-2,0,5,45,217,5,1,0.4166943,,,,
40,120100,2,1,-2,-2,4,5,45,218,5,1,0.5667262,,,,
40,115100,2,2,2,-2,0,6,0,219,6,1,0.4833621,,,,
40,131100,2,2,2,-2,0,6,0,220,6,1,0.4667814,,,,
40,4500,1,1,2,-2,0,6,0,221,6,1,0.4167216,,,,
40,131100,2,1,-2,2,0,5,45,222,5,1,0.45006,,,,
40,41500,1,2,-2,-2,4,5,45,223,5,1,0.5334102,,,,
40,69100,2,1,-2,-2,4,6,0,224,6,1,0.5166519,,,,
40,31500,1,1,-2,2,0,6,0,225,5,0,0.6667697,,,,
40,126100,2,2,2,2,4,6,0,226,6,1,0.5833548,,,,
40,117500,1,2,2,2,4,5,45,227,5,1,0.4834175,,,,
40,162100,2,1,-2,-2,4,6,0,228,6,1,0.4834645,,,,
40,101100,2,2,2,2,4,5,45,229,5,1,0.5334193,,,,
40,48100,2,2,2,2,4,5,45,230,5,1,0.500033,,,,
40,93100,2,1,-2,2,0,5,45,231,5,1,0.5001293,,,,
40,18500,1,2,2,2,4,5,45,232,5,1,0.4167713,,,,
40,146100,2,2,2,-2,0,6,0,233,6,1,0.4673776,,,,
40,32100,2,2,2,2,4,6,0,234,5,0,0.5350815,,,,
40,138500,1,2,-2,2,0,5,45,235,5,1,0.53334,,,,
40,32100,2,1,-2,-2,4,6,0,236,6,1,0.5001367,,,,
40,5100,2,2,-2,-2,4,6,0,237,6,1,0.4167429,,,,
40,152100,2,1,2,2,4,6,0,238,6,1,0.5334383,,,,
40,69500,1,2,-2,-2,4,6,0,239,6,1,0.5167982,,,,
40,69500,1,1,2,2,4,6,0,240,6,1,0.4666678,,,,
40,87100,2,1,2,2,4,5,45,241,5,1,0.4333632,,,,
40,158100,2,1,2,-2,0,6,0,242,6,1,0.4501076,,,,
40,26100,2,1,-2,-2,4,6,0,243,6,1,0.4833716,,,,
40,29100,2,1,-2,2,0,6,0,244,6,1,0.4501253,,,,
40,22100,2,2,2,-2,0,6,0,245,6,1,0.4999961,,,,
40,69500,1,1,2,-2,0,6,0,246,6,1,0.4167832,,,,
40,161100,2,2,2,2,4,6,0,247,6,1,0.4499863,,,,
40,144100,2,1,2,2,4,5,45,248,5,1,0.4342685,,,,
40,31500,1,1,-2,-2,4,5,45,249,5,1,0.3999551,,,,
40,94100,2,1,2,-2,0,6,0,250,6,1,0.5667079,,,,
40,81100,2,2,2,2,4,6,0,251,6,1,0.4000367,,,,
40,28100,2,2,2,-2,0,6,0,252,6,1,0.4667772,,,,
40,16100,2,2,2,-2,0,5,45,253,5,1,0.4684999,,,,
40,58100,2,1,-2,2,0,6,0,254,6,1,0.5833736,,,,
40,92500,1,1,-2,2,0,6,0,255,6,1,0.5167899,,,,
40,70100,2,1,-2,-2,4,5,45,256,5,1,0.5167131,,,,
40,17100,2,2,2,2,4,5,45,257,5,1,0.6001293,,,,
40,121500,1,1,-2,2,0,5,45,258,5,1,0.5000503,,,,
40,86100,2,1,-2,2,0,5,45,259,5,1,0.5001276,,,,
40,125100,2,1,2,2,4,6,0,260,6,1,0.4667725,,,,
40,27100,2,2,-2,-2,4,5,45,261,5,1,0.7500548,,,,
40,86100,2,2,2,2,4,5,45,262,5,1,0.4667632,,,,
40,62100,2,1,-2,2,0,6,0,263,6,1,0.6001331,,,,
40,84100,2,1,-2,2,0,5,45,264,5,1,0.5667079,,,,
40,41500,1,2,-2,2,0,6,0,265,5,0,0.4333598,,,,
40,75100,2,1,2,-2,0,6,0,266,6,1,0.5500971,,,,
40,18500,1,1,-2,2,0,6,0,267,6,1,0.4333135,,,,
40,136100,2,2,2,2,4,5,45,268,5,1,0.5000232,,,,
40,21500,1,2,-2,-2,4,6,0,269,6,1,0.4834332,,,,
40,144100,2,1,2,-2,0,6,0,270,6,1,0.5000184,,,,
40,52100,2,1,-2,-2,4,6,0,271,6,1,0.5334599,,,,
40,13100,2,2,-2,2,0,5,45,272,5,1,0.4667751,,,,
40,162100,2,2,2,2,4,5,45,273,5,1,0.5001355,,,,
40,12500,1,2,2,-2,0,5,45,274,5,1,0.6000676,,,,
40,48100,2,1,-2,2,0,5,45,275,5,1,0.5529513,,,,
40,69100,2,2,2,-2,0,5,45,276,5,1,0.4666513,,,,
40,80100,2,1,-2,2,0,5,45,277,5,1,0.4666674,,,,
40,91100,2,2,2,-2,0,6,0,278,6,1,0.4833393,,,,
40,123500,1,2,-2,-2,4,6,0,279,6,1,0.7168036,,,,
40,172500,1,2,2,2,4,6,0,280,6,1,0.4167928,,,,
40,142100,2,1,-2,2,0,5,45,281,6,0,0.4167017,,,,
40,1100,2,2,2,2,4,6,0,282,6,1,0.4501107,,,,
40,134100,2,2,-2,-2,4,6,0,283,6,1,0.450067,,,,
40,40100,2,2,2,-2,0,6,0,284,6,1,0.3834106,,,,
40,117500,1,1,-2,-2,4,5,45,285,5,1,0.4167077,,,,
40,140500,1,2,2,-2,0,5,45,286,5,1,0.3667263,,,,
40,84100,2,2,2,2,4,6,0,287,6,1,0.4167732,,,,
40,9100,2,2,-2,-2,4,6,0,288,6,1,0.4667276,,,,
40,72100,2,1,-2,2,0,5,45,289,5,1,0.4833734,,,,
40,22100,2,2,2,2,4,6,0,290,6,1,0.4667386,,,,
40,87100,2,2,-2,-2,4,5,45,291,6,0,0.5333463,,,,
40,36100,2,2,2,-2,0,6,0,292,6,1,0.4666399,,,,
40,73100,2,1,-2,-2,4,5,45,293,5,1,0.4334099,,,,
40,66100,2,2,2,-2,0,5,45,294,5,1,0.5667712,,,,
40,143100,2,2,2,2,4,5,45,295,5,1,0.5166942,,,,
40,150100,2,2,2,2,4,6,0,296,6,1,0.5168027,,,,
40,126100,2,2,2,-2,0,6,0,297,6,1,0.5000312,,,,
40,1100,2,2,2,-2,0,5,45,298,5,1,0.4834231,,,,
40,138500,1,1,2,2,4,6,0,299,6,1,0.4500502,,,,
40,60100,2,2,-2,-2,4,6,0,300,6,1,0.4667216,,,,
40,101500,1,2,2,-2,0,6,0,301,6,1,0.4668267,,,,
40,40100,2,1,-2,-2,4,6,0,302,6,1,0.4360908,,,,
40,63500,1,1,-2,-2,4,5,45,303,5,1,0.4686106,,,,
40,38100,2,2,2,-2,0,5,45,304,5,1,0.5678001,,,,
40,172500,1,1,-2,2,0,6,0,305,6,1,0.616666,,,,
40,96100,2,1,-2,-2,4,6,0,306,6,1,0.4514148,,,,
40,68500,1,1,-2,-2,4,5,45,307,5,1,0.58343,,,,
40,128500,1,1,-2,-2,4,5,45,308,5,1,0.4501391,,,,
40,4100,2,2,2,2,4,5,45,309,5,1,0.4667637,,,,
40,127100,2,1,-2,2,0,5,45,310,5,1,0.451386,,,,
40,68100,2,2,-2,2,0,5,45,311,5,1,0.4667024,,,,
40,60100,2,1,2,-2,0,5,45,312,5,1,0.5000505,,,,
40,32100,2,2,2,-2,0,5,45,313,5,1,0.5833397,,,,
40,35100,2,1,-2,-2,4,5,45,314,5,1,0.4666141,,,,
40,124100,2,2,2,2,4,6,0,315,6,1,0.4833935,,,,
40,117100,2,2,2,2,4,5,45,316,5,1,0.5333758,,,,
40,36100,2,1,-2,2,0,5,45,317,5,1,0.6523846,,,,
40,83100,2,2,-2,-2,4,5,45,318,5,1,0.5000418,,,,
40,129100,2,2,-2,-2,4,6,0,319,5,0,0.6500341,,,,
40,3100,2,1,-2,2,0,5,45,320,5,1,0.7500597,,,,
40,80100,2,2,2,-2,0,6,0,321,6,1,0.4167181,,,,
40,96100,2,2,2,2,4,5,45,322,5,1,0.499977,,,,
40,56100,2,2,-2,2,0,6,0,323,5,0,0.6334603,,,,
40,73100,2,2,2,-2,0,5,45,324,5,1,0.650057,,,,
40,70100,2,1,-2,2,0,6,0,325,6,1,0.433406,,,,
40,110100,2,2,2,2,4,5,45,326,5,1,0.5333945,,,,
40,173500,1,2,2,2,4,6,0,327,6,1,0.4667177,,,,
40,4100,2,2,2,-2,0,5,45,328,5,1,0.4834656,,,,
40,107100,2,2,2,2,4,6,0,329,5,0,0.4333775,,,,
40,125500,1,2,2,2,4,6,0,330,6,1,0.5500894,,,,
40,31500,1,2,2,-2,0,5,45,331,5,1,0.6001345,,,,
40,13100,2,2,-2,-2,4,5,45,332,5,1,0.5333964,,,,
40,142100,2,2,2,2,4,5,45,333,5,1,0.5334098,,,,
40,117500,1,1,-2,2,0,6,0,334,6,1,0.4336656,,,,
40,161100,2,2,2,-2,0,5,45,335,5,1,0.5000855,,,,
40,125100,2,2,-2,2,0,5,45,336,5,1,0.4999917,,,,
40,107100,2,1,-2,2,0,5,45,337,5,1,0.4666754,,,,
40,68100,2,1,2,2,4,6,0,338,6,1,0.5166531,,,,
40,36100,2,1,-2,-2,4,5,45,339,5,1,0.5666397,,,,
40,26100,2,2,2,-2,0,5,45,340,5,1,0.4849462,,,,
40,115100,2,1,-2,-2,4,6,0,341,6,1,0.5167826,,,,
40,108500,1,1,2,-2,0,5,45,342,5,1,0.3667936,,,,
40,26500,1,2,2,-2,0,5,45,343,5,1,0.4833272,,,,
40,75100,2,1,2,2,4,6,0,344,6,1,0.5500725,,,,
40,56100,2,2,-2,-2,4,5,45,345,5,1,0.4334064,,,,
40,125500,1,2,2,-2,0,5,45,346,5,1,0.500049,,,,
40,108500,1,2,-2,2,0,5,45,347,6,0,0.5166948,,,,
40,126100,2,1,-2,-2,4,5,45,348,5,1,0.4513346,,,,
40,65100,2,1,-2,2,0,6,0,349,6,1,0.7167069,,,,
40,47100,2,2,2,2,4,6,0,350,6,1,0.3834419,,,,
40,106100,2,2,2,-2,0,6,0,351,6,1,0.4500486,,,,
40,117100,2,1,-2,-2,4,5,45,352,5,1,0.4680944,,,,
40,69500,1,2,-2,2,0,6,0,353,6,1,0.4834537,,,,
40,105500,1,1,-2,-2,4,5,45,354,5,1,0.400035,,,,
40,106100,2,2,2,2,4,5,45,355,5,1,0.4500626,,,,
40,131100,2,1,-2,-2,4,6,0,356,6,1,0.4833791,,,,
40,29500,1,2,-2,-2,4,5,45,357,5,1,0.4333896,,,,
40,37100,2,1,2,2,4,5,45,358,5,1,0.4167626,,,,
40,110100,2,1,-2,-2,4,6,0,359,6,1,0.5017985,,,,
40,5100,2,1,2,-2,0,5,45,360,5,1,0.5675754,,,,
40,103500,1,2,-2,2,0,6,0,361,6,1,0.4667376,,,,
40,20100,2,1,-2,-2,4,6,0,362,6,1,0.4833704,,,,
40,109100,2,2,2,-2,0,6,0,363,6,1,0.4833715,,,,
40,63100,2,2,-2,-2,4,5,45,364,5,1,0.4001019,,,,
40,8100,2,2,2,2,4,6,0,365,6,1,0.5000613,,,,
40,43100,2,2,2,-2,0,6,0,366,6,1,0.7833999,,,,
40,20100,2,2,2,2,4,6,0,367,6,1,0.4167851,,,,
40,131500,1,1,-2,-2,4,5,45,368,5,1,0.3667215,,,,
40,121100,2,1,2,2,4,6,0,369,6,1,0.6500455,,,,
40,30100,2,2,-2,2,0,6,0,370,6,1,0.4183422,,,,
40,63500,1,2,2,2,4,6,0,371,6,1,0.4667867,,,,
40,40100,2,2,2,2,4,6,0,372,6,1,0.4167308,,,,
40,161100,2,1,-2,2,0,6,0,373,6,1,0.4667404,,,,
40,92500,1,2,2,2,4,5,45,374,5,1,0.4834041,,,,
40,79100,2,1,2,2,4,6,0,375,6,1,0.4342405,,,,
40,37100,2,1,2,-2,0,6,0,376,6,1,0.6168242,,,,
40,100100,2,2,2,2,4,5,45,377,5,1,0.4333725,,,,
40,116100,2,2,-2,-2,4,5,45,378,5,1,0.400035,,,,
40,55100,2,2,2,2,4,5,45,379,5,1,0.4500578,,,,
40,121500,1,2,2,2,4,5,45,380,5,1,0.4666464,,,,
40,140500,1,1,-2,2,0,6,0,381,6,1,0.3500177,,,,
40,26500,1,1,-2,2,0,5,45,382,5,1,0.4334045,,,,
40,158100,2,2,-2,-2,4,6,0,383,6,1,0.4505937,,,,
40,158100,2,1,2,2,4,6,0,384,6,1,0.4833802,,,,
40,22500,1,2,2,2,4,5,45,385,5,1,0.5167658,,,,
40,41100,2,2,-2,2,0,6,0,386,6,1,0.5514137,,,,
40,103500,1,1,2,-2,0,6,0,387,6,1,0.5501282,,,,
40,69100,2,2,2,2,4,5,45,388,5,1,0.6167801,,,,
40,8100,2,1,-2,-2,4,6,0,389,5,0,0.533433,,,,
40,49100,2,2,-2,-2,4,6,0,390,6,1,0.4667178,,,,
