ID,cue_image,Face_Set_Code,Face_Type_Code,cue_position_x,target_position_x,conguruence,corAns,orientation,trials.thisTrialN,Experiment_Trials_button.keys,Experiment_Trials_button.corr,Experiment_Trials_button.rt,frameRate37,70100,2,1,-2,2,0,5,0,0,5,1,0.4832913,59.9927528737,131100,2,2,-2,2,0,5,0,1,5,1,0.4334959,59.9927528737,153100,2,2,-2,-2,4,5,0,2,5,1,0.3833012,59.9927528737,11100,2,2,2,2,4,5,0,3,5,1,0.4168029,59.9927528737,173500,1,1,2,2,4,5,0,4,5,1,0.3501351,59.9927528737,162100,2,1,2,-2,0,6,45,5,6,1,0.5500432,59.9927528737,109100,2,1,-2,2,0,6,45,6,6,1,0.500138,59.9927528737,101100,2,1,2,2,4,6,45,7,6,1,0.5501852,59.9927528737,27100,2,2,2,2,4,5,0,8,5,1,0.6666934,59.9927528737,9100,2,1,-2,-2,4,5,0,9,5,1,0.4000251,59.9927528737,107100,2,2,2,-2,0,6,45,10,6,1,0.5005871,59.9927528737,111100,2,1,-2,2,0,5,0,11,5,1,0.500011,59.9927528737,81100,2,2,-2,-2,4,5,0,12,5,1,0.4333794,59.9927528737,4100,2,2,2,2,4,6,45,13,6,1,0.5001256,59.9927528737,62100,2,1,-2,2,0,6,45,14,6,1,0.4834115,59.9927528737,87100,2,2,-2,2,0,6,45,15,6,1,0.5334093,59.9927528737,30100,2,1,2,2,4,6,45,16,6,1,0.4666403,59.9927528737,60100,2,1,-2,2,0,5,0,17,5,1,0.4666974,59.9927528737,23100,2,2,-2,2,0,5,0,18,5,1,0.5167439,59.9927528737,61100,2,2,-2,-2,4,5,0,19,5,1,0.5667934,59.9927528737,100100,2,2,2,-2,0,6,45,20,6,1,0.5515813,59.9927528737,107100,2,1,-2,-2,4,6,45,21,6,1,0.5500115,59.9927528737,3100,2,1,2,2,4,5,0,22,5,1,0.4999368,59.9927528737,68100,2,1,-2,2,0,5,0,23,5,1,0.5167895,59.9927528737,117100,2,2,2,2,4,6,45,24,6,1,0.5667938,59.9927528737,120100,2,1,2,-2,0,6,45,25,6,1,0.5861312,59.9927528737,108100,2,2,-2,2,0,5,0,26,5,1,0.4666836,59.9927528737,125500,1,1,-2,-2,4,6,45,27,6,1,0.516657,59.9927528737,7100,2,1,-2,2,0,6,45,28,5,0,0.4666253,59.9927528737,140500,1,1,-2,-2,4,6,45,29,6,1,0.683439,59.9927528737,4100,2,1,-2,-2,4,6,45,30,6,1,0.4667935,59.9927528737,69100,2,2,-2,2,0,6,45,31,6,1,0.5166857,59.9927528737,5100,2,2,-2,-2,4,5,0,32,5,1,0.4666816,59.9927528737,141100,2,2,2,2,4,6,45,33,6,1,0.5501208,59.9927528737,21500,1,1,2,-2,0,6,45,34,6,1,0.5833626,59.9927528737,136100,2,1,-2,-2,4,5,0,35,5,1,0.4834074,59.9927528737,57100,2,1,-2,2,0,5,0,36,5,1,0.5166955,59.9927528737,11100,2,1,-2,-2,4,6,45,37,6,1,0.4833151,59.9927528737,142100,2,1,2,-2,0,6,45,38,6,1,0.4833511,59.9927528737,172500,1,2,2,-2,0,5,0,39,5,1,0.4668112,59.9927528737,52100,2,2,-2,-2,4,6,45,40,6,1,0.516789,59.9927528737,69500,1,1,2,-2,0,5,0,41,5,1,0.5333522,59.9927528737,68500,1,1,2,-2,0,5,0,42,5,1,0.4666954,59.9927528737,93100,2,2,-2,2,0,6,45,43,6,1,0.500105,59.9927528737,38100,2,2,2,-2,0,6,45,44,6,1,0.4688033,59.9927528737,45100,2,2,-2,-2,4,5,0,45,5,1,0.5666225,59.9927528737,143500,1,1,2,-2,0,5,0,46,5,1,0.4500921,59.9927528737,117500,1,1,-2,2,0,5,0,47,5,1,0.5166193,59.9927528737,134100,2,1,2,2,4,5,0,48,5,1,0.5000367,59.9927528737,91100,2,2,2,-2,0,6,45,49,6,1,0.4667772,59.9927528737,75100,2,1,-2,2,0,6,45,50,6,1,0.5168105,59.9927528737,13100,2,2,-2,-2,4,5,0,51,5,1,0.5333153,59.9927528737,56100,2,1,2,2,4,6,45,52,6,1,0.4833421,59.9927528737,141500,1,1,2,2,4,5,0,53,5,1,0.500104,59.9927528737,108500,1,1,2,-2,0,5,0,54,5,1,0.5000789,59.9927528737,5100,2,2,-2,2,0,5,0,55,5,1,0.4000139,59.9927528737,143100,2,2,2,2,4,6,45,56,6,1,0.5166816,59.9927528737,107100,2,1,-2,2,0,5,0,57,5,1,0.5000881,59.9927528737,20100,2,1,2,2,4,6,45,58,6,1,0.6000208,59.9927528737,31100,2,1,-2,-2,4,5,0,59,5,1,0.4519292,59.9927528737,120100,2,2,-2,-2,4,5,0,60,5,1,0.450041,59.9927528737,136100,2,2,2,2,4,5,0,61,5,1,0.4167623,59.9927528737,86100,2,1,-2,2,0,6,45,62,5,0,0.3667212,59.9927528737,47100,2,1,-2,-2,4,6,45,63,6,1,0.5166798,59.9927528737,3100,2,2,-2,2,0,5,0,64,5,1,0.5001185,59.9927528737,41100,2,1,-2,2,0,5,0,65,5,1,0.5166859,59.9927528737,61100,2,1,2,2,4,5,0,66,5,1,0.4834487,59.9927528737,29500,1,1,2,2,4,5,0,67,5,1,0.4500292,59.9927528737,91100,2,1,-2,2,0,6,45,68,6,1,0.4833454,59.9927528737,130500,1,2,-2,2,0,6,45,69,6,1,0.5667139,59.9927528737,134100,2,1,2,-2,0,5,0,70,5,1,0.5026134,59.9927528737,31500,1,2,2,-2,0,5,0,71,5,1,0.7167977,59.9927528737,57100,2,2,2,-2,0,5,0,72,5,1,0.4334708,59.9927528737,92500,1,2,2,2,4,5,0,73,5,1,0.5166877,59.9927528737,22100,2,2,2,2,4,6,45,74,6,1,0.5000968,59.9927528737,5100,2,1,2,-2,0,6,45,75,6,1,0.5834219,59.9927528737,152100,2,1,-2,2,0,5,0,76,5,1,0.550028,59.9927528737,69500,1,2,-2,-2,4,6,45,77,6,1,0.5666774,59.9927528737,41100,2,2,2,2,4,6,45,78,6,1,0.5667109,59.9927528737,106100,2,1,2,-2,0,6,45,79,6,1,0.50265,59.9927528737,26500,1,1,2,-2,0,5,0,80,5,1,0.5501686,59.9927528737,20100,2,2,-2,2,0,5,0,81,5,1,0.4667944,59.9927528737,35100,2,1,2,-2,0,5,0,82,5,1,0.3999165,59.9927528737,38100,2,1,-2,-2,4,6,45,83,6,1,0.5167832,59.9927528737,35100,2,2,-2,-2,4,6,45,84,6,1,0.4833587,59.9927528737,123500,1,1,2,-2,0,6,45,85,6,1,0.4666481,59.9927528737,31100,2,2,2,-2,0,5,0,86,6,0,0.4999836,59.9927528737,56100,2,2,-2,-2,4,6,45,87,6,1,0.5333883,59.9927528737,5100,2,1,2,2,4,6,45,88,6,1,0.48346,59.9927528737,129100,2,1,-2,2,0,5,0,89,5,1,0.5166811,59.9927528737,103500,1,1,2,2,4,6,45,90,6,1,0.5687858,59.9927528737,96100,2,1,-2,-2,4,6,45,91,6,1,0.4678885,59.9927528737,33100,2,1,-2,2,0,6,45,92,6,1,0.5000315,59.9927528737,13100,2,1,2,2,4,6,45,93,6,1,0.483342,59.9927528737,116100,2,2,-2,2,0,6,45,94,6,1,0.3999505,59.9927528737,121500,1,1,2,-2,0,5,0,95,5,1,0.5172301,59.9927528737,130500,1,2,-2,-2,4,6,45,96,6,1,0.5000984,59.9927528737,125500,1,1,-2,2,0,5,0,97,5,1,0.4834665,59.9927528737,31500,1,1,-2,2,0,5,0,98,5,1,0.5333527,59.9927528737,131500,1,2,2,2,4,6,45,99,6,1,0.5501142,59.9927528737,110100,2,1,2,2,4,6,45,100,6,1,0.4000389,59.9927528737,1100,2,1,2,2,4,5,0,101,5,1,0.5333272,59.9927528737,55100,2,1,-2,2,0,6,45,102,6,1,0.550052,59.9927528737,84100,2,1,2,2,4,5,0,103,5,1,0.5166388,59.9927528737,4500,1,2,-2,-2,4,6,45,104,6,1,0.5167308,59.9927528737,121500,1,1,2,2,4,5,0,105,5,1,0.4862334,59.9927528737,38100,2,1,-2,2,0,6,45,106,6,1,0.4666756,59.9927528737,28100,2,2,-2,-2,4,6,45,107,6,1,0.5000415,59.9927528737,158100,2,1,2,2,4,5,0,108,5,1,0.4667353,59.9927528737,76100,2,2,-2,2,0,6,45,109,6,1,0.4168005,59.9927528737,103500,1,2,-2,2,0,5,0,110,5,1,0.5334347,59.9927528737,123500,1,1,2,2,4,5,0,111,5,1,0.3834478,59.9927528737,65100,2,2,2,2,4,5,0,112,5,1,0.4834262,59.9927528737,7100,2,1,-2,-2,4,5,0,113,5,1,0.5001131,59.9927528737,101500,1,1,2,2,4,6,45,114,6,1,0.4500497,59.9927528737,29500,1,1,2,-2,0,6,45,115,6,1,0.6000972,59.9927528737,26500,1,2,-2,-2,4,6,45,116,6,1,0.5166349,59.9927528737,98100,2,1,2,-2,0,6,45,117,6,1,0.5004083,59.9927528737,61100,2,1,2,-2,0,6,45,118,6,1,0.5166855,59.9927528737,26500,1,1,2,2,4,6,45,119,6,1,0.533391,59.9927528737,125100,2,1,2,-2,0,6,45,120,6,1,0.5500038,59.9927528737,117500,1,2,2,-2,0,5,0,121,5,1,0.4834164,59.9927528737,122100,2,1,2,-2,0,5,0,122,5,1,0.4666381,59.9927528737,158100,2,2,-2,-2,4,5,0,123,5,1,0.4667557,59.9927528737,129100,2,2,2,2,4,5,0,124,5,1,0.5334601,59.9927528737,128500,1,1,2,2,4,5,0,125,5,1,0.4667639,59.9927528737,79100,2,1,2,-2,0,6,45,126,6,1,0.4833671,59.9927528737,25100,2,1,-2,-2,4,6,45,127,6,1,0.5001443,59.9927528737,134100,2,2,-2,-2,4,6,45,128,6,1,0.5167509,59.9927528737,140500,1,1,-2,2,0,5,0,129,5,1,0.5167519,59.9927528737,127100,2,1,2,2,4,6,45,130,5,0,0.5833663,59.9927528737,37100,2,2,-2,2,0,5,0,131,5,1,0.4833295,59.9927528737,141100,2,2,2,-2,0,6,45,132,6,1,0.4834606,59.9927528737,95100,2,2,-2,-2,4,6,45,133,6,1,0.4999929,59.9927528737,138100,2,1,2,-2,0,5,0,134,5,1,0.5167831,59.9927528737,17100,2,1,2,2,4,6,45,135,6,1,0.5169237,59.9927528737,45100,2,2,-2,2,0,5,0,136,5,1,0.5166654,59.9927528737,138100,2,1,2,2,4,6,45,137,6,1,0.5000106,59.9927528737,141500,1,1,2,-2,0,5,0,138,5,1,0.5501064,59.9927528737,2100,2,1,-2,2,0,5,0,139,5,1,0.6166651,59.9927528737,25100,2,2,2,2,4,6,45,140,5,0,0.6167203,59.9927528737,79100,2,1,2,2,4,5,0,141,5,1,0.4844921,59.9927528737,100100,2,1,-2,-2,4,6,45,142,6,1,0.5835661,59.9927528737,25100,2,2,2,-2,0,5,0,143,5,1,0.6001118,59.9927528737,75100,2,1,-2,-2,4,6,45,144,6,1,0.6167941,59.9927528737,172500,1,1,-2,2,0,6,45,145,6,1,0.6834498,59.9927528737,94100,2,2,2,-2,0,5,0,146,5,1,0.583267,59.9927528737,31100,2,2,2,2,4,5,0,147,5,1,0.5000727,59.9927528737,4500,1,1,2,2,4,6,45,148,6,1,0.5000082,59.9927528737,13100,2,2,-2,2,0,6,45,149,6,1,0.5166036,59.9927528737,93100,2,1,2,-2,0,6,45,150,6,1,0.6167325,59.9927528737,132500,1,2,-2,-2,4,6,45,151,6,1,0.4666824,59.9927528737,129100,2,1,-2,-2,4,6,45,152,6,1,0.5505468,59.9927528737,18100,2,2,2,2,4,5,0,153,5,1,0.5001312,59.9927528737,22500,1,1,-2,2,0,6,45,154,6,1,0.5501361,59.9927528737,22100,2,1,-2,2,0,5,0,155,5,1,0.5833783,59.9927528737,17100,2,2,-2,2,0,5,0,156,5,1,0.5334263,59.9927528737,129100,2,2,2,-2,0,5,0,157,5,1,0.6333308,59.9927528737,63500,1,1,-2,2,0,6,45,158,6,1,0.5667443,59.9927528737,57100,2,2,2,2,4,5,0,159,5,1,0.6167309,59.9927528737,128500,1,2,-2,-2,4,5,0,160,5,1,0.5667995,59.9927528737,12500,1,2,2,2,4,6,45,161,6,1,0.4833173,59.9927528737,27100,2,1,-2,-2,4,6,45,162,6,1,0.6674462,59.9927528737,69500,1,1,2,2,4,5,0,163,5,1,0.5166692,59.9927528737,36100,2,1,-2,2,0,6,45,164,5,0,0.8501252,59.9927528737,122100,2,2,-2,2,0,5,0,165,5,1,0.5001289,59.9927528737,68500,1,1,2,2,4,6,45,166,6,1,0.5169977,59.9927528737,33100,2,2,2,2,4,6,45,167,6,1,0.4833579,59.9927528737,173500,1,2,-2,-2,4,5,0,168,5,1,0.6333581,59.9927528737,72100,2,1,-2,-2,4,5,0,169,5,1,0.4667836,59.9927528737,16100,2,1,-2,-2,4,6,45,170,6,1,0.6499637,59.9927528737,18100,2,1,-2,2,0,5,0,171,5,1,0.5501232,59.9927528737,62100,2,2,2,2,4,5,0,172,5,1,0.566635,59.9927528737,47100,2,2,2,-2,0,5,0,173,5,1,0.5836314,59.9927528737,26100,2,2,-2,2,0,5,0,174,5,1,0.5515748,59.9927528737,134100,2,2,-2,2,0,6,45,175,6,1,0.5179123,59.9927528737,111100,2,2,2,-2,0,6,45,176,6,1,0.5167995,59.9927528737,31500,1,2,2,2,4,6,45,177,6,1,0.4500989,59.9927528737,40100,2,1,2,2,4,6,45,178,6,1,0.6333586,59.9927528737,106100,2,2,-2,2,0,5,0,179,5,1,0.5001308,59.9927528737,153100,2,2,-2,2,0,5,0,180,5,1,0.4519178,59.9927528737,40100,2,1,2,-2,0,5,0,181,5,1,0.5001595,59.9927528737,28100,2,1,2,-2,0,6,45,182,6,1,0.5501272,59.9927528737,40100,2,2,-2,2,0,5,0,183,5,1,0.6833634,59.9927528737,55100,2,2,2,-2,0,5,0,184,5,1,0.5834498,59.9927528737,153100,2,1,2,2,4,5,0,185,5,1,0.5000224,59.9927528737,26100,2,1,2,-2,0,5,0,186,5,1,0.50003,59.9927528737,162100,2,1,2,2,4,5,0,187,5,1,0.4667999,59.9927528737,125100,2,2,-2,-2,4,6,45,188,6,1,0.5499709,59.9927528737,81100,2,1,2,-2,0,5,0,189,5,1,0.5333702,59.9927528737,132500,1,1,2,2,4,5,0,190,5,1,0.6167435,59.9927528737,29100,2,1,-2,2,0,6,45,191,6,1,0.5499706,59.9927528737,29500,1,2,-2,2,0,5,0,192,5,1,0.4833367,59.9927528737,125100,2,2,-2,2,0,6,45,193,6,1,0.7333054,59.9927528737,84100,2,2,-2,2,0,6,45,194,6,1,0.4833595,59.9927528737,172500,1,2,2,2,4,5,0,195,5,1,0.5166944,59.9927528737,115100,2,1,-2,-2,4,6,45,196,6,1,0.650013,59.9927528737,132100,2,2,2,-2,0,6,45,197,6,1,0.6166926,59.9927528737,138100,2,2,-2,2,0,5,0,198,5,1,0.5333356,59.9927528737,104500,1,1,-2,-2,4,5,0,199,5,1,0.5166524,59.9927528737,113100,2,1,2,2,4,6,45,200,6,1,0.5666329,59.9927528737,83100,2,1,-2,-2,4,6,45,201,6,1,0.6000293,59.9927528737,143500,1,2,-2,-2,4,6,45,202,6,1,0.3833659,59.9927528737,49100,2,2,2,-2,0,6,45,203,6,1,0.4166233,59.9927528737,23100,2,1,2,2,4,6,45,204,6,1,0.4333492,59.9927528737,76100,2,1,2,2,4,6,45,205,6,1,0.4166945,59.9927528737,124100,2,1,-2,2,0,5,0,206,5,1,0.5667554,59.9927528737,10100,2,2,-2,-2,4,6,45,207,6,1,0.4999955,59.9927528737,94100,2,2,2,2,4,6,45,208,6,1,0.4668023,59.9927528737,144100,2,1,2,2,4,5,0,209,5,1,0.6500986,59.9927528737,84100,2,2,-2,-2,4,5,0,210,5,1,0.500147,59.9927528737,117100,2,1,-2,-2,4,5,0,211,5,1,0.4834284,59.9927528737,158100,2,2,-2,2,0,5,0,212,5,1,0.5833451,59.9927528737,68500,1,2,-2,-2,4,6,45,213,6,1,0.5833325,59.9927528737,32100,2,2,-2,2,0,6,45,214,6,1,0.4500175,59.9927528737,77100,2,2,2,-2,0,5,0,215,5,1,0.6834076,59.9927528737,130500,1,1,2,2,4,5,0,216,5,1,0.4834244,59.9927528737,108100,2,2,-2,-2,4,5,0,217,5,1,0.4667104,59.9927528737,110100,2,2,-2,2,0,5,0,218,5,1,0.5167368,59.9927528737,33100,2,1,-2,-2,4,5,0,219,5,1,0.4340176,59.9927528737,76100,2,2,-2,-2,4,5,0,220,5,1,0.4500414,59.9927528737,77100,2,1,-2,2,0,6,45,221,6,1,0.5167798,59.9927528737,41500,1,1,2,2,4,5,0,222,5,1,0.5666475,59.9927528737,158100,2,1,2,-2,0,6,45,223,6,1,0.6666443,59.9927528737,100100,2,2,2,2,4,5,0,224,5,1,0.600079,59.9927528737,132500,1,1,2,-2,0,6,45,225,6,1,0.5667962,59.9927528737,33100,2,2,2,-2,0,5,0,226,5,1,0.6666967,59.9927528737,122100,2,2,-2,-2,4,6,45,227,6,1,0.6332981,59.9927528737,72100,2,1,-2,2,0,6,45,228,6,1,0.6000206,59.9927528737,68100,2,1,-2,-2,4,5,0,229,5,1,0.5000159,59.9927528737,157100,2,2,2,2,4,5,0,230,5,1,0.4501325,59.9927528737,86100,2,2,2,2,4,6,45,231,6,1,0.5166006,59.9927528737,173500,1,1,2,-2,0,6,45,232,5,0,0.5333631,59.9927528737,101500,1,2,-2,-2,4,6,45,233,6,1,0.5833141,59.9927528737,93100,2,1,2,2,4,5,0,234,5,1,0.6667046,59.9927528737,116100,2,2,-2,-2,4,5,0,235,5,1,0.7334216,59.9927528737,63100,2,2,-2,2,0,6,45,236,6,1,0.5666888,59.9927528737,22100,2,1,-2,-2,4,6,45,237,6,1,0.5501173,59.9927528737,130500,1,1,2,-2,0,6,45,238,6,1,0.4500436,59.9927528737,153100,2,1,2,-2,0,6,45,239,6,1,0.4334888,59.9927528737,52100,2,1,2,2,4,5,0,240,5,1,0.5167975,59.9927528737,36100,2,2,2,2,4,6,45,241,6,1,0.4500248,59.9927528737,27100,2,1,-2,2,0,5,0,242,5,1,0.5167819,59.9927528737,124100,2,2,2,2,4,5,0,243,5,1,0.5334592,59.9927528737,11100,2,1,-2,2,0,5,0,244,5,1,0.5001195,59.9927528737,41500,1,2,-2,-2,4,6,45,245,6,1,0.600015,59.9927528737,106100,2,1,2,2,4,5,0,246,5,1,0.4834538,59.9927528737,107100,2,2,2,2,4,6,45,247,6,1,0.4999733,59.9927528737,103500,1,1,2,-2,0,6,45,248,6,1,0.5501343,59.9927528737,43100,2,1,-2,2,0,6,45,249,6,1,0.5167895,59.9927528737,120100,2,1,2,2,4,5,0,250,5,1,0.4834236,59.9927528737,121100,2,1,-2,2,0,6,45,251,6,1,0.4834284,59.9927528737,123500,1,2,-2,-2,4,6,45,252,6,1,0.6834234,59.9927528737,98100,2,1,2,2,4,5,0,253,5,1,0.6834164,59.9927528737,18500,1,1,2,2,4,6,45,254,6,1,0.4500168,59.9927528737,131500,1,1,-2,-2,4,5,0,255,5,1,0.5504111,59.9927528737,16100,2,2,2,2,4,6,45,256,6,1,0.5166626,59.9927528737,26500,1,2,-2,2,0,5,0,257,5,1,0.5167492,59.9927528737,69100,2,2,-2,-2,4,5,0,258,6,0,0.4508434,59.9927528737,98100,2,2,-2,2,0,6,45,259,6,1,0.5666267,59.9927528737,121500,1,2,-2,-2,4,5,0,260,5,1,0.533363,59.9927528737,126100,2,1,-2,-2,4,5,0,261,5,1,0.534944,59.9927528737,125500,1,2,2,-2,0,6,45,262,6,1,0.583452,59.9927528737,109100,2,1,-2,-2,4,5,0,263,5,1,0.566804,59.9927528737,138500,1,2,-2,-2,4,6,45,264,6,1,0.5834327,59.9927528737,36100,2,1,-2,-2,4,6,45,265,6,1,0.5501235,59.9927528737,73100,2,1,2,-2,0,5,0,266,5,1,0.549957,59.9927528737,63100,2,1,2,-2,0,6,45,267,6,1,0.5499399,59.9927528737,101100,2,2,-2,-2,4,5,0,268,5,1,0.483354,59.9927528737,95100,2,1,2,-2,0,5,0,269,5,1,0.4682,59.9927528737,26100,2,2,-2,-2,4,5,0,270,5,1,0.4501225,59.9927528737,68100,2,2,2,2,4,6,45,271,6,1,0.4500249,59.9927528737,144100,2,2,-2,2,0,6,45,272,6,1,0.4510403,59.9927528737,141500,1,2,-2,-2,4,6,45,273,6,1,0.4833204,59.9927528737,96100,2,2,2,2,4,5,0,274,5,1,0.4834605,59.9927528737,161100,2,2,2,-2,0,5,0,275,5,1,0.6016623,59.9927528737,105500,1,1,2,2,4,6,45,276,6,1,0.6666833,59.9927528737,17100,2,2,-2,-2,4,5,0,277,5,1,0.483348,59.9927528737,76100,2,1,2,-2,0,5,0,278,5,1,0.5667916,59.9927528737,66100,2,1,2,2,4,5,0,279,5,1,0.51663,59.9927528737,120100,2,2,-2,2,0,6,45,280,6,1,0.9333322,59.9927528737,142100,2,1,2,2,4,6,45,281,6,1,0.4500464,59.9927528737,98100,2,2,-2,-2,4,5,0,282,5,1,0.4500331,59.9927528737,10100,2,2,-2,2,0,5,0,283,5,1,0.5166118,59.9927528737,83100,2,2,2,2,4,5,0,284,5,1,0.4832785,59.9927528737,12500,1,1,-2,2,0,6,45,285,6,1,0.5502281,59.9927528737,36100,2,2,2,-2,0,5,0,286,5,1,0.6000224,59.9927528737,161100,2,1,-2,2,0,5,0,287,5,1,0.6333443,59.9927528737,143500,1,2,-2,2,0,6,45,288,6,1,0.6841872,59.9927528737,83100,2,1,-2,2,0,6,45,289,6,1,0.5000212,59.9927528737,71100,2,1,2,-2,0,6,45,290,6,1,0.4833074,59.9927528737,92500,1,1,-2,-2,4,5,0,291,5,1,0.4999897,59.9927528737,41500,1,1,2,-2,0,6,45,292,6,1,0.5334075,59.9927528737,117100,2,2,2,-2,0,5,0,293,5,1,0.4833743,59.9927528737,2100,2,2,2,2,4,5,0,294,5,1,0.4853036,59.9927528737,69500,1,2,-2,2,0,5,0,295,5,1,0.4176271,59.9927528737,115100,2,2,2,2,4,5,0,296,5,1,0.4666954,59.9927528737,80100,2,2,2,2,4,6,45,297,6,1,0.4333427,59.9927528737,18100,2,1,-2,-2,4,5,0,298,5,1,0.4834613,59.9927528737,104500,1,2,2,-2,0,6,45,299,6,1,0.4843008,59.9927528737,161100,2,2,2,2,4,6,45,300,6,1,0.4000298,59.9927528737,48100,2,1,2,-2,0,6,45,301,6,1,0.4666088,59.9927528737,87100,2,1,2,-2,0,6,45,302,6,1,0.4333958,59.9927528737,22500,1,1,-2,-2,4,6,45,303,6,1,0.4339128,59.9927528737,146100,2,1,-2,-2,4,6,45,304,6,1,0.4166767,59.9927528737,79100,2,2,-2,-2,4,6,45,305,6,1,0.4833724,59.9927528737,49100,2,1,-2,-2,4,5,0,306,5,1,0.5510749,59.9927528737,35100,2,1,2,2,4,5,0,307,5,1,0.5167617,59.9927528737,12500,1,1,-2,-2,4,6,45,308,6,1,0.5667961,59.9927528737,131500,1,2,2,-2,0,6,45,309,6,1,0.4000305,59.9927528737,7100,2,2,2,2,4,5,0,310,5,1,0.6664643,59.9927528737,146100,2,2,2,2,4,5,0,311,5,1,0.5001185,59.9927528737,42100,2,2,-2,2,0,5,0,312,5,1,0.4834336,59.9927528737,21500,1,2,-2,-2,4,6,45,313,6,1,0.7833446,59.9927528737,157100,2,2,2,-2,0,6,45,314,6,1,0.5166836,59.9927528737,37100,2,1,2,-2,0,6,45,315,6,1,0.5168224,59.9927528737,121500,1,2,-2,2,0,5,0,316,5,1,0.5333505,59.9927528737,79100,2,2,-2,2,0,5,0,317,5,1,0.5001145,59.9927528737,25100,2,1,-2,2,0,5,0,318,5,1,0.4999413,59.9927528737,125500,1,2,2,2,4,6,45,319,6,1,0.5350571,59.9927528737,65100,2,2,2,-2,0,6,45,320,6,1,0.6666967,59.9927528737,28100,2,2,-2,2,0,5,0,321,5,1,0.5000171,59.9927528737,143100,2,1,-2,-2,4,6,45,322,6,1,0.5834667,59.9927528737,4100,2,2,2,-2,0,5,0,323,5,1,0.6166871,59.9927528737,73100,2,2,-2,-2,4,5,0,324,5,1,0.5500477,59.9927528737,173500,1,2,-2,2,0,6,45,325,6,1,0.500128,59.9927528737,9100,2,2,2,-2,0,5,0,326,5,1,0.5500335,59.9927528737,16100,2,1,-2,2,0,5,0,327,5,1,0.6167538,59.9927528737,18500,1,2,-2,-2,4,5,0,328,5,1,0.4668007,59.9927528737,60100,2,2,2,-2,0,6,45,329,6,1,0.6000131,59.9927528737,105100,2,1,-2,2,0,6,45,330,6,1,0.5182255,59.9927528737,141100,2,1,-2,2,0,6,45,331,6,1,0.4848546,59.9927528737,63500,1,2,2,-2,0,6,45,332,6,1,0.5501129,59.9927528737,1100,2,1,2,-2,0,6,45,333,6,1,0.4501249,59.9927528737,152100,2,2,2,-2,0,6,45,334,6,1,0.4500466,59.9927528737,60100,2,2,2,2,4,5,0,335,5,1,0.5168031,59.9927528737,81100,2,2,-2,2,0,5,0,336,5,1,0.6334326,59.9927528737,48100,2,1,2,2,4,5,0,337,5,1,0.5001238,59.9927528737,136100,2,1,-2,2,0,5,0,338,5,1,0.6021475,59.9927528737,87100,2,2,-2,-2,4,5,0,339,5,1,0.5500967,59.9927528737,121100,2,1,-2,-2,4,6,45,340,6,1,0.5500289,59.9927528737,122100,2,1,2,2,4,6,45,341,6,1,0.4501319,59.9927528737,49100,2,1,-2,2,0,5,0,342,5,1,0.5333584,59.9927528737,161100,2,1,-2,-2,4,6,45,343,6,1,0.5530059,59.9927528737,21500,1,1,2,2,4,6,45,344,6,1,0.5500341,59.9927528737,75100,2,2,2,-2,0,6,45,345,6,1,0.6834464,59.9927528737,80100,2,2,2,-2,0,6,45,346,6,1,0.5500037,59.9927528737,111100,2,1,-2,-2,4,6,45,347,6,1,0.7518425,59.9927528737,144100,2,1,2,-2,0,5,0,348,5,1,0.700121,59.9927528737,40100,2,2,-2,-2,4,6,45,349,6,1,0.5666861,59.9927528737,66100,2,2,-2,-2,4,6,45,350,6,1,0.4168039,59.9927528737,63500,1,1,-2,-2,4,5,0,351,5,1,0.4668004,59.9927528737,157100,2,1,-2,2,0,6,45,352,6,1,0.4666831,59.9927528737,126100,2,1,-2,2,0,5,0,353,5,1,0.4667816,59.9927528737,38100,2,2,2,2,4,5,0,354,5,1,0.4334352,59.9927528737,9100,2,2,2,2,4,6,45,355,6,1,0.5167484,59.9927528737,141100,2,1,-2,-2,4,6,45,356,5,0,0.5833591,59.9927528737,43100,2,2,2,2,4,6,45,357,6,1,0.5000265,59.9927528737,121100,2,2,2,2,4,5,0,358,5,1,0.5168364,59.9927528737,117100,2,1,-2,2,0,5,0,359,5,1,0.4181451,59.9927528737,140500,1,2,2,2,4,6,45,360,6,1,0.5667768,59.9927528737,8100,2,2,-2,2,0,6,45,361,6,1,1.1832985,59.9927528737,43100,2,2,2,-2,0,5,0,362,5,1,0.5167195,59.9927528737,8100,2,2,-2,-2,4,6,45,363,6,1,0.4507789,59.9927528737,57100,2,1,-2,-2,4,6,45,364,6,1,0.4667986,59.9927528737,23100,2,2,-2,-2,4,6,45,365,6,1,0.516587,59.9927528737,18500,1,2,-2,2,0,5,0,366,5,1,0.5178259,59.9927528737,109100,2,2,2,-2,0,6,45,367,6,1,0.4666269,59.9927528737,10100,2,1,2,-2,0,5,0,368,5,1,0.8166098,59.9927528737,143100,2,2,2,-2,0,6,45,369,6,1,0.5166454,59.9927528737,60100,2,1,-2,-2,4,5,0,370,5,1,0.4833501,59.9927528737,63100,2,1,2,2,4,5,0,371,5,1,0.5332935,59.9927528737,23100,2,1,2,-2,0,5,0,372,5,1,0.516798,59.9927528737,20100,2,1,2,-2,0,5,0,373,5,1,0.4500052,59.9927528737,144100,2,2,-2,-2,4,6,45,374,6,1,0.5332746,59.9927528737,20100,2,2,-2,-2,4,6,45,375,6,1,0.4500241,59.9927528737,42100,2,1,2,2,4,6,45,376,6,1,0.5500051,59.9927528737,63100,2,2,-2,-2,4,6,45,377,6,1,0.5168028,59.9927528737,71100,2,2,-2,2,0,6,45,378,6,1,0.5333515,59.9927528737,70100,2,2,2,-2,0,5,0,379,5,1,0.5333638,59.9927528737,110100,2,2,-2,-2,4,5,0,380,5,1,0.5500124,59.9927528737,29100,2,2,2,-2,0,5,0,381,5,1,0.5013325,59.9927528737,127100,2,2,-2,-2,4,6,45,382,6,1,0.4999706,59.9927528737,121100,2,2,2,-2,0,6,45,383,6,1,0.4833418,59.9927528737,131100,2,1,2,2,4,5,0,384,5,1,0.5666378,59.9927528737,26100,2,1,2,2,4,5,0,385,5,1,0.5500015,59.9927528737,105100,2,1,-2,-2,4,5,0,386,5,1,0.5001301,59.9927528737,138500,1,1,2,2,4,6,45,387,6,1,0.61671,59.9927528737,2100,2,2,2,-2,0,5,0,388,5,1,0.6666831,59.9927528737,140500,1,2,2,-2,0,5,0,389,5,1,0.7347858,59.9927528737,101100,2,2,-2,2,0,6,45,390,6,1,0.9000496,59.9927528737,131100,2,2,-2,-2,4,5,0,391,5,1,0.6333564,59.9927528737,131100,2,1,2,-2,0,6,45,392,6,1,1.1501215,59.9927528737,28100,2,1,2,2,4,5,0,393,5,1,0.5000455,59.9927528737,30100,2,1,2,-2,0,6,45,394,6,1,0.533373,59.9927528737,105500,1,1,2,-2,0,5,0,395,5,1,0.5167531,59.9927528737,30100,2,2,-2,-2,4,6,45,396,6,1,0.483345,59.9927528737,18100,2,2,2,-2,0,5,0,397,5,1,0.5666534,59.9927528737,125100,2,1,2,2,4,5,0,398,5,1,0.5503156,59.9927528737,128500,1,1,2,-2,0,6,45,399,6,1,0.5834219,59.9927528737,48100,2,2,-2,-2,4,6,45,400,6,1,0.5334182,59.9927528737,30100,2,2,-2,2,0,6,45,401,6,1,0.4843728,59.9927528737,127100,2,1,2,-2,0,5,0,402,5,1,0.5166873,59.9927528737,58100,2,1,2,2,4,5,0,403,5,1,0.6000403,59.9927528737,93100,2,2,-2,-2,4,5,0,404,5,1,0.5500178,59.9927528737,4500,1,1,2,-2,0,6,45,405,6,1,0.5676066,59.9927528737,77100,2,1,-2,-2,4,5,0,406,5,1,0.5668133,59.9927528737,70100,2,1,-2,-2,4,6,45,407,6,1,0.4833777,59.9927528737,69100,2,1,2,-2,0,5,0,408,5,1,0.5000118,59.9927528737,150100,2,1,2,-2,0,5,0,409,5,1,0.4505097,59.9927528737,32100,2,1,2,-2,0,5,0,410,5,1,0.4833729,59.9927528737,3100,2,1,2,-2,0,5,0,411,5,1,0.4021522,59.9927528737,72100,2,2,2,-2,0,5,0,412,5,1,0.4166896,59.9927528737,152100,2,2,2,2,4,6,45,413,6,1,0.4518364,59.9927528737,81100,2,1,2,2,4,5,0,414,5,1,0.5500205,59.9927528737,47100,2,2,2,2,4,6,45,415,6,1,0.5333695,59.9927528737,115100,2,1,-2,2,0,5,0,416,5,1,0.5001045,59.9927528737,65100,2,1,-2,-2,4,5,0,417,5,1,0.5167781,59.9927528737,22100,2,2,2,-2,0,6,45,418,6,1,0.516698,59.9927528737,146100,2,2,2,-2,0,5,0,419,5,1,0.5334557,59.9927528737,103500,1,2,-2,-2,4,6,45,420,6,1,0.5018343,59.9927528737,150100,2,2,-2,2,0,5,0,421,5,1,0.5341554,59.9927528737,123500,1,2,-2,2,0,6,45,422,6,1,0.5500087,59.9927528737,29500,1,2,-2,-2,4,6,45,423,6,1,0.4999863,59.9927528737,108500,1,2,-2,-2,4,5,0,424,5,1,0.4347344,59.9927528737,29100,2,2,2,2,4,5,0,425,5,1,0.4999573,59.9927528737,132100,2,2,2,2,4,5,0,426,5,1,0.4500179,59.9927528737,143500,1,1,2,2,4,6,45,427,6,1,0.4333853,59.9927528737,56100,2,2,-2,2,0,6,45,428,6,1,0.4334175,59.9927528737,157100,2,1,-2,-2,4,6,45,429,6,1,0.4666729,59.9927528737,83100,2,2,2,-2,0,6,45,430,6,1,0.5500283,59.9927528737,22500,1,2,2,-2,0,6,45,431,6,1,0.383433,59.9927528737,127100,2,2,-2,2,0,6,45,432,6,1,0.4334693,59.9927528737,35100,2,2,-2,2,0,6,45,433,6,1,0.4667033,59.9927528737,113100,2,2,-2,2,0,6,45,434,6,1,0.383408,59.9927528737,9100,2,1,-2,2,0,5,0,435,5,1,0.4168034,59.9927528737,96100,2,1,-2,2,0,5,0,436,5,1,0.4694876,59.9927528737,101500,1,2,-2,2,0,5,0,437,5,1,0.366747,59.9927528737,80100,2,1,-2,2,0,6,45,438,5,0,0.3834334,59.9927528737,94100,2,1,-2,2,0,5,0,439,5,1,0.5000442,59.9927528737,62100,2,2,2,-2,0,6,45,440,6,1,0.5001088,59.9927528737,116100,2,1,2,-2,0,5,0,441,5,1,0.5333837,59.9927528737,32100,2,2,-2,-2,4,6,45,442,6,1,0.53334,59.9927528737,94100,2,1,-2,-2,4,6,45,443,6,1,0.5000134,59.9927528737,138500,1,1,2,-2,0,6,45,444,6,1,0.5167869,59.9927528737,105100,2,2,2,-2,0,6,45,445,6,1,0.4834685,59.9927528737,52100,2,1,2,-2,0,6,45,446,6,1,0.5167987,59.9927528737,72100,2,2,2,2,4,6,45,447,6,1,0.5334557,59.9927528737,138500,1,2,-2,2,0,5,0,448,5,1,0.5166811,59.9927528737,92500,1,2,2,-2,0,6,45,449,6,1,0.4666523,59.9927528737,95100,2,2,-2,2,0,6,45,450,6,1,0.5000244,59.9927528737,106100,2,2,-2,-2,4,5,0,451,5,1,0.5000207,59.9927528737,100100,2,1,-2,2,0,6,45,452,6,1,0.5001171,59.9927528737,45100,2,1,2,2,4,5,0,453,5,1,0.9000099,59.9927528737,96100,2,2,2,-2,0,5,0,454,5,1,0.6999935,59.9927528737,37100,2,1,2,2,4,5,0,455,5,1,0.6500225,59.9927528737,117500,1,2,2,2,4,6,45,456,6,1,0.6001056,59.9927528737,104500,1,1,-2,2,0,6,45,457,6,1,0.5017769,59.9927528737,7100,2,2,2,-2,0,5,0,458,5,1,0.6000176,59.9927528737,12500,1,2,2,-2,0,6,45,459,6,1,0.5500262,59.9927528737,41100,2,1,-2,-2,4,5,0,460,5,1,0.5167053,59.9927528737,91100,2,1,-2,-2,4,5,0,461,5,1,0.4500236,59.9927528737,86100,2,1,-2,-2,4,6,45,462,6,1,0.4834156,59.9927528737,150100,2,2,-2,-2,4,6,45,463,6,1,0.383403,59.9927528737,41500,1,2,-2,2,0,5,0,464,5,1,0.6501031,59.9927528737,33500,1,2,-2,2,0,5,0,465,5,1,0.5011262,59.9927528737,11100,2,2,2,-2,0,6,45,466,6,1,0.5332969,59.9927528737,27100,2,2,2,-2,0,5,0,467,5,1,0.6166477,59.9927528737,62100,2,1,-2,-2,4,6,45,468,6,1,0.5181276,59.9927528737,33500,1,1,2,2,4,6,45,469,6,1,0.5166368,59.9927528737,84100,2,1,2,-2,0,5,0,470,5,1,0.5680556,59.9927528737,77100,2,2,2,2,4,5,0,471,5,1,0.5000336,59.9927528737,8100,2,1,2,-2,0,5,0,472,5,1,0.450112,59.9927528737,108500,1,2,-2,2,0,6,45,473,6,1,0.4168019,59.9927528737,87100,2,1,2,2,4,6,45,474,6,1,0.5000244,59.9927528737,2100,2,1,-2,-2,4,5,0,475,6,0,0.7998946,59.9927528737,16100,2,2,2,-2,0,6,45,476,6,1,0.6006504,59.9927528737,13100,2,1,2,-2,0,6,45,477,6,1,0.5683054,59.9927528737,162100,2,2,-2,2,0,5,0,478,5,1,0.5999573,59.9927528737,68500,1,2,-2,2,0,5,0,479,5,1,0.5499844,59.9927528737,80100,2,1,-2,-2,4,6,45,480,6,1,0.8667089,59.9927528737,128500,1,2,-2,2,0,6,45,481,6,1,0.5832813,59.9927528737,55100,2,2,2,2,4,5,0,482,5,1,0.7000069,59.9927528737,152100,2,1,-2,-2,4,6,45,483,6,1,0.5667053,59.9927528737,111100,2,2,2,2,4,5,0,484,5,1,0.5000275,59.9927528737,4500,1,2,-2,2,0,5,0,485,5,1,0.5500417,59.9927528737,141500,1,2,-2,2,0,5,0,486,5,1,0.5167846,59.9927528737,172500,1,1,-2,-2,4,5,0,487,5,1,0.5333387,59.9927528737,49100,2,2,2,2,4,5,0,488,5,1,0.5334615,59.9927528737,1100,2,2,-2,-2,4,5,0,489,5,1,0.467921,59.9927528737,108100,2,1,2,2,4,6,45,490,6,1,0.5671971,59.9927528737,91100,2,2,2,2,4,5,0,491,5,1,0.433308,59.9927528737,48100,2,2,-2,2,0,5,0,492,5,1,0.4499612,59.9927528737,71100,2,2,-2,-2,4,5,0,493,5,1,0.4666758,59.9927528737,45100,2,1,2,-2,0,5,0,494,5,1,0.4511981,59.9927528737,42100,2,1,2,-2,0,6,45,495,6,1,0.5834492,59.9927528737,138100,2,2,-2,-2,4,5,0,496,5,1,0.3833619,59.9927528737,4100,2,1,-2,2,0,5,0,497,5,1,0.5000309,59.9927528737,136100,2,2,2,-2,0,6,45,498,6,1,0.5333475,59.9927528737,117500,1,1,-2,-2,4,6,45,499,6,1,0.5667999,59.9927528737,10100,2,1,2,2,4,5,0,500,5,1,0.4845881,59.9927528737,33500,1,1,2,-2,0,5,0,501,5,1,0.4169023,59.9927528737,105100,2,2,2,2,4,5,0,502,5,1,0.4667145,59.9927528737,131500,1,1,-2,2,0,6,45,503,6,1,0.4833347,59.9927528737,142100,2,2,-2,-2,4,6,45,504,5,0,0.5166925,59.9927528737,22500,1,2,2,2,4,5,0,505,5,1,0.533503,59.9927528737,146100,2,1,-2,2,0,5,0,506,5,1,0.4833707,59.9927528737,58100,2,2,-2,2,0,5,0,507,5,1,0.4666937,59.9927528737,56100,2,1,2,-2,0,6,45,508,6,1,0.4505392,59.9927528737,113100,2,1,2,-2,0,6,45,509,6,1,0.416643,59.9927528737,65100,2,1,-2,2,0,6,45,510,6,1,0.4334603,59.9927528737,70100,2,2,2,2,4,5,0,511,5,1,0.5333591,59.9927528737,108500,1,1,2,2,4,5,0,512,5,1,0.4501374,59.9927528737,132100,2,1,-2,-2,4,6,45,513,6,1,0.5501257,59.9927528737,58100,2,1,2,-2,0,5,0,514,5,1,0.6334087,59.9927528737,43100,2,1,-2,-2,4,6,45,515,6,1,0.5834059,59.9927528737,132500,1,2,-2,2,0,6,45,516,6,1,0.5334683,59.9927528737,71100,2,1,2,2,4,5,0,517,5,1,0.583411,59.9927528737,108100,2,1,2,-2,0,6,45,518,6,1,0.4511684,59.9927528737,95100,2,1,2,2,4,6,45,519,5,0,0.5501138,59.9927528737,66100,2,1,2,-2,0,5,0,520,5,1,0.6334258,59.9927528737,105500,1,2,-2,2,0,6,45,521,6,1,0.6333605,59.9927528737,8100,2,1,2,2,4,5,0,522,5,1,0.5834392,59.9927528737,55100,2,1,-2,-2,4,5,0,523,5,1,0.5667705,59.9927528737,42100,2,2,-2,-2,4,5,0,524,5,1,0.5335003,59.9927528737,68100,2,2,2,-2,0,5,0,525,5,1,0.6667817,59.9927528737,126100,2,2,2,-2,0,5,0,526,5,1,0.650099,59.9927528737,17100,2,1,2,-2,0,5,0,527,5,1,0.6001225,59.9927528737,58100,2,2,-2,-2,4,5,0,528,5,1,0.5834312,59.9927528737,101500,1,1,2,-2,0,6,45,529,5,0,0.4839212,59.9927528737,63500,1,2,2,2,4,5,0,530,5,1,0.6000403,59.9927528737,75100,2,2,2,2,4,6,45,531,6,1,0.7833088,59.9927528737,52100,2,2,-2,2,0,6,45,532,6,1,0.6000789,59.9927528737,150100,2,1,2,2,4,6,45,533,6,1,0.6167493,59.9927528737,3100,2,2,-2,-2,4,5,0,534,5,1,0.5166798,59.9927528737,105500,1,2,-2,-2,4,6,45,535,5,0,0.566693,59.9927528737,110100,2,1,2,-2,0,6,45,536,6,1,0.5833553,59.9927528737,124100,2,1,-2,-2,4,6,45,537,6,1,0.4334442,59.9927528737,101100,2,1,2,-2,0,6,45,538,6,1,0.5000218,59.9927528737,32100,2,1,2,2,4,5,0,539,5,1,0.5667893,59.9927528737,47100,2,1,-2,2,0,5,0,540,5,1,0.6333375,59.9927528737,113100,2,2,-2,-2,4,6,45,541,6,1,0.5834312,59.9927528737,33500,1,2,-2,-2,4,6,45,542,6,1,0.4833514,59.9927528737,132100,2,1,-2,2,0,6,45,543,6,1,0.5166887,59.9927528737,37100,2,2,-2,-2,4,6,45,544,6,1,0.5333568,59.9927528737,109100,2,2,2,2,4,6,45,545,6,1,0.4666831,59.9927528737,162100,2,2,-2,-2,4,5,0,546,5,1,1.0001163,59.9927528737,18500,1,1,2,-2,0,5,0,547,5,1,1.1860823,59.9927528737,73100,2,2,-2,2,0,6,45,548,6,1,0.5334084,59.9927528737,66100,2,2,-2,2,0,6,45,549,6,1,0.4668032,59.9927528737,21500,1,2,-2,2,0,5,0,550,5,1,0.7832945,59.9927528737,143100,2,1,-2,2,0,6,45,551,6,1,1.2833981,59.9927528737,142100,2,2,-2,2,0,5,0,552,5,1,0.9334425,59.9927528737,126100,2,2,2,2,4,5,0,553,5,1,0.5500325,59.9927528737,73100,2,1,2,2,4,6,45,554,6,1,0.4668024,59.9927528737,69100,2,1,2,2,4,6,45,555,6,1,0.4334058,59.9927528737,115100,2,2,2,-2,0,6,45,556,6,1,0.6001338,59.9927528737,61100,2,2,-2,2,0,6,45,557,6,1,0.5499943,59.9927528737,92500,1,1,-2,2,0,6,45,558,6,1,0.4334586,59.9927528737,1100,2,2,-2,2,0,5,0,559,5,1,0.4838642,59.9927528737,86100,2,2,2,-2,0,5,0,560,5,1,0.4833772,59.9927528737,41100,2,2,2,-2,0,5,0,561,5,1,0.4166294,59.9927528737,31500,1,1,-2,-2,4,6,45,562,6,1,0.4666192,59.9927528737,116100,2,1,2,2,4,5,0,563,5,1,0.5000322,59.9927528737,31100,2,1,-2,2,0,5,0,564,5,1,0.5668047,59.9927528737,104500,1,2,2,2,4,5,0,565,5,1,0.4666945,59.9927528737,29100,2,1,-2,-2,4,6,45,566,6,1,0.5001316,59.9927528737,124100,2,2,2,-2,0,6,45,567,6,1,0.4001155,59.9927528738,109100,2,2,2,-2,0,6,45,0,6,1,0.633398,59.9887221338,4500,1,1,2,-2,0,5,0,1,5,1,0.5667879,59.9887221338,23100,2,1,2,2,4,6,45,2,6,1,0.5001204,59.9887221338,101500,1,1,-2,-2,4,6,45,3,6,1,0.8166371,59.9887221338,105500,1,2,2,2,4,5,0,4,5,1,0.5833179,59.9887221338,100100,2,1,-2,2,0,6,45,5,6,1,0.5500128,59.9887221338,1100,2,1,-2,-2,4,6,45,6,6,1,0.6501055,59.9887221338,125100,2,1,2,-2,0,5,0,7,5,1,0.6667097,59.9887221338,93100,2,2,2,2,4,5,0,8,5,1,0.6843073,59.9887221338,136100,2,1,-2,-2,4,5,0,9,5,1,0.6167815,59.9887221338,76100,2,1,-2,-2,4,6,45,10,6,1,0.583386,59.9887221338,10100,2,1,-2,2,0,6,45,11,6,1,0.7000336,59.9887221338,117100,2,1,-2,2,0,6,45,12,6,1,0.4832886,59.9887221338,92500,1,2,2,-2,0,6,45,13,5,0,0.7834301,59.9887221338,60100,2,1,2,2,4,6,45,14,6,1,0.6001236,59.9887221338,57100,2,1,-2,2,0,5,0,15,5,1,0.6000619,59.9887221338,161100,2,1,-2,-2,4,6,45,16,6,1,0.6000401,59.9887221338,94100,2,2,-2,-2,4,5,0,17,5,1,0.6501247,59.9887221338,28100,2,2,2,2,4,5,0,18,5,1,0.6333698,59.9887221338,140500,1,1,-2,-2,4,5,0,19,5,1,0.5333855,59.9887221338,81100,2,1,-2,2,0,5,0,20,5,1,0.633454,59.9887221338,45100,2,2,-2,2,0,6,45,21,6,1,0.6500475,59.9887221338,20100,2,2,2,2,4,6,45,22,6,1,0.6167896,59.9887221338,150100,2,2,2,2,4,5,0,23,5,1,0.5834353,59.9887221338,72100,2,1,-2,-2,4,6,45,24,6,1,0.6167415,59.9887221338,11100,2,1,-2,-2,4,6,45,25,6,1,0.6000175,59.9887221338,13100,2,2,-2,2,0,5,0,26,5,1,0.5850047,59.9887221338,10100,2,2,2,-2,0,6,45,27,6,1,0.6000639,59.9887221338,68500,1,2,2,-2,0,6,45,28,6,1,0.5500342,59.9887221338,92500,1,2,2,2,4,5,0,29,5,1,0.5666706,59.9887221338,52100,2,1,-2,-2,4,5,0,30,5,1,0.3667036,59.9887221338,172500,1,1,-2,-2,4,6,45,31,6,1,0.5000876,59.9887221338,126100,2,2,2,-2,0,6,45,32,6,1,0.5500491,59.9887221338,31100,2,1,-2,2,0,6,45,33,6,1,0.5334163,59.9887221338,132100,2,1,-2,-2,4,6,45,34,6,1,0.6667253,59.9887221338,94100,2,1,2,-2,0,5,0,35,5,1,0.8167403,59.9887221338,33500,1,2,2,-2,0,6,45,36,6,1,0.5667569,59.9887221338,36100,2,1,-2,2,0,6,45,37,6,1,0.5000388,59.9887221338,27100,2,2,-2,-2,4,5,0,38,5,1,0.483392,59.9887221338,5100,2,2,-2,-2,4,6,45,39,6,1,0.5172951,59.9887221338,68500,1,1,-2,2,0,5,0,40,5,1,0.5667231,59.9887221338,20100,2,1,-2,2,0,6,45,41,6,1,0.7833567,59.9887221338,23100,2,1,2,-2,0,5,0,42,5,1,0.7687122,59.9887221338,4500,1,2,-2,2,0,5,0,43,5,1,0.7666268,59.9887221338,83100,2,1,2,2,4,6,45,44,6,1,0.5666262,59.9887221338,172500,1,2,2,-2,0,6,45,45,6,1,0.7166453,59.9887221338,29100,2,2,2,-2,0,5,0,46,5,1,0.6999859,59.9887221338,7100,2,1,-2,-2,4,6,45,47,6,1,0.6167779,59.9887221338,47100,2,1,-2,-2,4,5,0,48,5,1,0.6174512,59.9887221338,93100,2,1,-2,2,0,5,0,49,5,1,0.6501175,59.9887221338,29500,1,2,-2,-2,4,5,0,50,5,1,0.5834555,59.9887221338,96100,2,2,2,2,4,5,0,51,5,1,0.5167851,59.9887221338,150100,2,1,-2,-2,4,6,45,52,6,1,0.5500372,59.9887221338,107100,2,1,-2,2,0,5,0,53,5,1,0.5001213,59.9887221338,28100,2,1,-2,-2,4,6,45,54,6,1,0.5500515,59.9887221338,8100,2,1,-2,-2,4,6,45,55,6,1,0.5500425,59.9887221338,29100,2,1,-2,-2,4,5,0,56,5,1,0.5500992,59.9887221338,158100,2,2,-2,2,0,5,0,57,5,1,0.5501003,59.9887221338,172500,1,1,-2,2,0,6,45,58,6,1,0.5167566,59.9887221338,38100,2,1,-2,2,0,5,0,59,5,1,0.5498922,59.9887221338,9100,2,1,2,-2,0,6,45,60,6,1,0.4668035,59.9887221338,41100,2,2,-2,-2,4,5,0,61,5,1,0.5833761,59.9887221338,127100,2,2,2,-2,0,5,0,62,5,1,0.5166787,59.9887221338,72100,2,2,2,2,4,5,0,63,5,1,0.4678448,59.9887221338,138100,2,2,2,-2,0,5,0,64,5,1,0.4167953,59.9887221338,95100,2,2,2,2,4,5,0,65,5,1,0.4334129,59.9887221338,120100,2,2,2,-2,0,5,0,66,5,1,0.383416,59.9887221338,42100,2,1,-2,2,0,6,45,67,6,1,0.4833667,59.9887221338,132100,2,1,-2,2,0,6,45,68,6,1,0.4667693,59.9887221338,138500,1,2,-2,-2,4,6,45,69,6,1,0.5334637,59.9887221338,125500,1,1,-2,2,0,6,45,70,6,1,0.4516299,59.9887221338,61100,2,2,2,2,4,6,45,71,6,1,0.5001293,59.9887221338,56100,2,1,2,-2,0,6,45,72,6,1,0.433379,59.9887221338,21500,1,1,2,-2,0,6,45,73,5,0,0.583469,59.9887221338,27100,2,1,2,-2,0,6,45,74,6,1,0.6000338,59.9887221338,49100,2,1,2,-2,0,5,0,75,5,1,0.5500264,59.9887221338,25100,2,1,-2,2,0,5,0,76,5,1,0.5834679,59.9887221338,116100,2,1,2,-2,0,5,0,77,5,1,0.5167168,59.9887221338,104500,1,1,-2,-2,4,5,0,78,5,1,0.5168018,59.9887221338,17100,2,2,2,2,4,5,0,79,5,1,0.5517739,59.9887221338,56100,2,1,2,2,4,6,45,80,6,1,0.6167119,59.9887221338,68100,2,1,2,2,4,5,0,81,5,1,0.6834134,59.9887221338,152100,2,1,2,-2,0,5,0,82,5,1,0.5842087,59.9887221338,36100,2,2,2,2,4,6,45,83,6,1,0.9000976,59.9887221338,111100,2,1,2,2,4,6,45,84,6,1,0.4500909,59.9887221338,22100,2,2,2,2,4,5,0,85,5,1,0.6000212,59.9887221338,138500,1,2,-2,2,0,6,45,86,6,1,0.6334528,59.9887221338,8100,2,2,2,2,4,6,45,87,6,1,0.5166408,59.9887221338,117500,1,1,-2,2,0,5,0,88,5,1,0.6001289,59.9887221338,105500,1,1,-2,2,0,5,0,89,5,1,0.533371,59.9887221338,87100,2,2,-2,-2,4,5,0,90,5,1,0.4500232,59.9887221338,79100,2,1,2,-2,0,6,45,91,6,1,0.5666416,59.9887221338,49100,2,1,2,2,4,6,45,92,6,1,0.6000212,59.9887221338,121100,2,2,-2,2,0,5,0,93,5,1,0.6500991,59.9887221338,104500,1,2,2,-2,0,5,0,94,5,1,0.6000281,59.9887221338,13100,2,2,-2,-2,4,6,45,95,6,1,0.6167578,59.9887221338,81100,2,1,-2,-2,4,6,45,96,6,1,0.5333759,59.9887221338,40100,2,1,-2,-2,4,6,45,97,6,1,0.6501159,59.9887221338,130500,1,1,2,2,4,5,0,98,5,1,0.5333748,59.9887221338,84100,2,2,2,2,4,6,45,99,6,1,0.6014431,59.9887221338,77100,2,2,2,-2,0,6,45,100,6,1,0.8667097,59.9887221338,161100,2,2,2,-2,0,5,0,101,5,1,0.6166913,59.9887221338,128500,1,1,-2,2,0,5,0,102,5,1,0.6167094,59.9887221338,127100,2,1,-2,-2,4,5,0,103,5,1,0.4166468,59.9887221338,84100,2,2,2,-2,0,5,0,104,5,1,0.4667158,59.9887221338,126100,2,2,2,2,4,6,45,105,6,1,0.7500358,59.9887221338,100100,2,2,2,2,4,5,0,106,5,1,0.6333753,59.9887221338,32100,2,2,2,2,4,6,45,107,6,1,0.6833917,59.9887221338,107100,2,2,2,2,4,5,0,108,5,1,0.8833672,59.9887221338,63500,1,2,2,-2,0,6,45,109,6,1,0.7500404,59.9887221338,103500,1,2,-2,2,0,5,0,110,5,1,0.5668042,59.9887221338,126100,2,1,-2,2,0,6,45,111,6,1,0.667291,59.9887221338,122100,2,2,2,2,4,6,45,112,6,1,0.516794,59.9887221338,75100,2,2,-2,2,0,5,0,113,5,1,0.6167747,59.9887221338,125100,2,2,-2,2,0,5,0,114,5,1,0.6167555,59.9887221338,108100,2,2,-2,2,0,6,45,115,6,1,0.6001223,59.9887221338,52100,2,2,2,2,4,5,0,116,5,1,0.5167893,59.9887221338,62100,2,1,-2,-2,4,5,0,117,5,1,0.61678,59.9887221338,122100,2,2,2,-2,0,6,45,118,6,1,0.6167007,59.9887221338,104500,1,2,2,2,4,6,45,119,6,1,0.5667014,59.9887221338,41500,1,2,-2,-2,4,6,45,120,6,1,0.5000228,59.9887221338,27100,2,2,-2,2,0,6,45,121,6,1,0.4333251,59.9887221338,70100,2,2,2,2,4,6,45,122,6,1,0.5167793,59.9887221338,75100,2,1,2,-2,0,5,0,123,5,1,0.9500372,59.9887221338,68500,1,1,-2,-2,4,5,0,124,5,1,0.4501323,59.9887221338,62100,2,2,2,-2,0,6,45,125,6,1,0.5833995,59.9887221338,13100,2,1,2,-2,0,5,0,126,5,1,0.5500365,59.9887221338,108100,2,1,2,2,4,6,45,127,6,1,0.5167633,59.9887221338,3100,2,2,2,2,4,5,0,128,5,1,0.4834304,59.9887221338,131500,1,1,-2,2,0,5,0,129,5,1,0.4834064,59.9887221338,43100,2,2,2,-2,0,5,0,130,5,1,0.4667552,59.9887221338,94100,2,1,2,2,4,6,45,131,6,1,0.4341538,59.9887221338,124100,2,1,-2,-2,4,5,0,132,5,1,0.4500899,59.9887221338,69500,1,1,2,-2,0,5,0,133,5,1,0.400065,59.9887221338,152100,2,2,-2,2,0,5,0,134,5,1,0.5167058,59.9887221338,105100,2,1,2,2,4,6,45,135,6,1,0.5000421,59.9887221338,29100,2,2,2,2,4,5,0,136,5,1,0.3501359,59.9887221338,28100,2,1,-2,2,0,5,0,137,5,1,0.5000347,59.9887221338,63100,2,1,2,-2,0,6,45,138,6,1,0.5517839,59.9887221338,70100,2,1,-2,2,0,5,0,139,5,1,0.4834282,59.9887221338,5100,2,1,2,2,4,5,0,140,5,1,0.3834276,59.9887221338,107100,2,1,-2,-2,4,6,45,141,5,0,0.3667581,59.9887221338,138500,1,1,2,2,4,6,45,142,6,1,0.4833939,59.9887221338,38100,2,2,2,2,4,5,0,143,5,1,0.516631,59.9887221338,146100,2,1,-2,2,0,5,0,144,5,1,0.6847299,59.9887221338,143100,2,1,-2,2,0,6,45,145,6,1,0.4000425,59.9887221338,25100,2,2,2,2,4,5,0,146,5,1,0.5167324,59.9887221338,8100,2,2,2,-2,0,5,0,147,5,1,0.4000576,59.9887221338,31100,2,2,2,2,4,6,45,148,6,1,0.4333667,59.9887221338,71100,2,1,2,-2,0,6,45,149,6,1,0.550024,59.9887221338,108500,1,2,-2,-2,4,5,0,150,5,1,0.633368,59.9887221338,162100,2,2,2,-2,0,6,45,151,6,1,0.5167024,59.9887221338,68500,1,2,2,2,4,5,0,152,5,1,0.5166955,59.9887221338,125500,1,1,-2,-2,4,5,0,153,5,1,0.4333683,59.9887221338,31100,2,1,-2,-2,4,5,0,154,5,1,0.4666905,59.9887221338,4100,2,1,-2,-2,4,6,45,155,6,1,0.4666802,59.9887221338,55100,2,2,2,-2,0,6,45,156,6,1,0.5001399,59.9887221338,94100,2,2,-2,2,0,6,45,157,6,1,0.3833857,59.9887221338,37100,2,1,2,-2,0,6,45,158,5,0,0.4000163,59.9887221338,30100,2,1,2,2,4,5,0,159,5,1,0.6340833,59.9887221338,110100,2,1,-2,2,0,5,0,160,5,1,0.5000585,59.9887221338,83100,2,2,-2,2,0,6,45,161,6,1,0.5000859,59.9887221338,26100,2,1,-2,-2,4,5,0,162,5,1,1.3333346,59.9887221338,29100,2,1,-2,2,0,5,0,163,5,1,0.5166926,59.9887221338,115100,2,2,2,-2,0,5,0,164,5,1,0.4834673,59.9887221338,138100,2,1,-2,2,0,5,0,165,5,1,0.466766,59.9887221338,57100,2,2,2,-2,0,6,45,166,6,1,0.6667549,59.9887221338,41500,1,1,2,2,4,6,45,167,6,1,0.6667972,59.9887221338,141500,1,1,-2,-2,4,6,45,168,6,1,0.5500121,59.9887221338,98100,2,1,2,2,4,5,0,169,5,1,0.5005105,59.9887221338,76100,2,1,-2,2,0,5,0,170,5,1,0.4167615,59.9887221338,33100,2,1,2,-2,0,5,0,171,5,1,0.5001211,59.9887221338,12500,1,2,2,-2,0,5,0,172,5,1,0.3500195,59.9887221338,18100,2,1,2,-2,0,6,45,173,6,1,0.4500451,59.9887221338,69500,1,2,-2,-2,4,5,0,174,5,1,0.5501163,59.9887221338,117500,1,1,-2,-2,4,5,0,175,5,1,0.5667941,59.9887221338,117500,1,2,2,2,4,6,45,176,6,1,0.466695,59.9887221338,22100,2,1,-2,-2,4,5,0,177,5,1,0.4666917,59.9887221338,157100,2,2,2,-2,0,5,0,178,5,1,0.4667238,59.9887221338,143100,2,2,2,2,4,6,45,179,6,1,0.4833906,59.9887221338,144100,2,2,-2,2,0,5,0,180,5,1,0.5834262,59.9887221338,96100,2,2,2,-2,0,6,45,181,6,1,0.5334297,59.9887221338,141500,1,2,2,-2,0,5,0,182,5,1,0.5667766,59.9887221338,1100,2,2,2,2,4,5,0,183,5,1,0.900035,59.9887221338,131100,2,1,-2,2,0,6,45,184,6,1,0.4000406,59.9887221338,11100,2,1,-2,2,0,6,45,185,6,1,0.4001342,59.9887221338,131500,1,2,2,2,4,5,0,186,5,1,0.4349071,59.9887221338,73100,2,2,2,2,4,6,45,187,6,1,0.6166968,59.9887221338,123500,1,2,-2,2,0,6,45,188,6,1,0.5333416,59.9887221338,130500,1,2,-2,2,0,5,0,189,5,1,0.5167234,59.9887221338,29500,1,1,2,2,4,5,0,190,5,1,0.5166985,59.9887221338,110100,2,1,-2,-2,4,5,0,191,5,1,0.4833733,59.9887221338,143100,2,2,2,-2,0,6,45,192,6,1,0.5334572,59.9887221338,108500,1,1,2,2,4,6,45,193,6,1,0.4833768,59.9887221338,52100,2,1,-2,2,0,5,0,194,5,1,0.566707,59.9887221338,32100,2,1,-2,-2,4,6,45,195,6,1,0.6668042,59.9887221338,113100,2,1,-2,2,0,5,0,196,5,1,0.5501326,59.9887221338,109100,2,2,2,2,4,5,0,197,5,1,0.516719,59.9887221338,77100,2,1,-2,-2,4,5,0,198,5,1,1.0174379,59.9887221338,3100,2,2,2,-2,0,6,45,199,6,1,0.916935,59.9887221338,26100,2,2,2,2,4,5,0,200,5,1,0.5667919,59.9887221338,41100,2,1,2,2,4,6,45,201,6,1,0.6667442,59.9887221338,100100,2,2,2,-2,0,5,0,202,5,1,0.8667645,59.9887221338,116100,2,2,-2,2,0,5,0,203,5,1,0.7167276,59.9887221338,162100,2,1,-2,2,0,5,0,204,5,1,0.450024,59.9887221338,142100,2,1,-2,2,0,6,45,205,6,1,0.5000366,59.9887221338,38100,2,2,2,-2,0,5,0,206,5,1,0.4681323,59.9887221338,150100,2,2,2,-2,0,6,45,207,6,1,0.6501371,59.9887221338,105100,2,2,-2,2,0,6,45,208,6,1,1.0834063,59.9887221338,7100,2,2,2,2,4,5,0,209,5,1,0.5166406,59.9887221338,128500,1,1,-2,-2,4,5,0,210,5,1,0.4001377,59.9887221338,144100,2,2,-2,-2,4,5,0,211,5,1,0.3168294,59.9887221338,152100,2,1,2,2,4,6,45,212,6,1,0.4666268,59.9887221338,101500,1,1,-2,2,0,6,45,213,6,1,0.4000613,59.9887221338,55100,2,1,-2,2,0,6,45,214,6,1,0.3833603,59.9887221338,69100,2,1,-2,2,0,5,0,215,5,1,0.583364,59.9887221338,101100,2,2,2,-2,0,5,0,216,5,1,0.4667017,59.9887221338,136100,2,2,2,2,4,5,0,217,5,1,0.4168026,59.9887221338,117100,2,2,2,-2,0,6,45,218,6,1,0.5667154,59.9887221338,100100,2,1,-2,-2,4,5,0,219,5,1,0.5500243,59.9887221338,120100,2,1,-2,-2,4,6,45,220,6,1,0.5333415,59.9887221338,111100,2,1,2,-2,0,6,45,221,6,1,0.5176133,59.9887221338,122100,2,1,-2,2,0,5,0,222,5,1,0.5834483,59.9887221338,41100,2,2,-2,2,0,5,0,223,5,1,0.4669344,59.9887221338,35100,2,2,2,-2,0,6,45,224,6,1,0.5333696,59.9887221338,75100,2,2,-2,-2,4,6,45,225,6,1,0.5525741,59.9887221338,132500,1,1,-2,2,0,6,45,226,6,1,0.5501288,59.9887221338,69500,1,2,-2,2,0,6,45,227,6,1,0.4167999,59.9887221338,26500,1,1,-2,-2,4,6,45,228,6,1,0.3833753,59.9887221338,55100,2,2,2,2,4,5,0,229,5,1,0.5500436,59.9887221338,161100,2,1,-2,2,0,6,45,230,6,1,0.5666994,59.9887221338,144100,2,1,2,-2,0,6,45,231,6,1,0.4844028,59.9887221338,40100,2,1,-2,2,0,6,45,232,6,1,0.7334091,59.9887221338,124100,2,2,2,-2,0,5,0,233,5,1,0.4501364,59.9887221338,26500,1,2,2,-2,0,5,0,234,5,1,0.3834166,59.9887221338,126100,2,1,-2,-2,4,6,45,235,6,1,0.4833875,59.9887221338,108500,1,1,2,-2,0,5,0,236,5,1,0.5166523,59.9887221338,28100,2,2,2,-2,0,5,0,237,5,1,0.5516967,59.9887221338,146100,2,2,2,2,4,6,45,238,6,1,0.5500911,59.9887221338,141500,1,2,2,2,4,6,45,239,6,1,0.6334112,59.9887221338,36100,2,1,-2,-2,4,6,45,240,6,1,0.5000239,59.9887221338,134100,2,1,2,2,4,6,45,241,6,1,0.4168268,59.9887221338,161100,2,2,2,2,4,6,45,242,6,1,0.3175447,59.9887221338,141100,2,1,2,2,4,5,0,243,5,1,0.7167557,59.9887221338,33500,1,1,-2,2,0,6,45,244,6,1,0.4666396,59.9887221338,84100,2,1,-2,-2,4,5,0,245,5,1,0.4333631,59.9887221338,95100,2,1,-2,2,0,5,0,246,5,1,0.5166999,59.9887221338,22500,1,1,-2,-2,4,5,0,247,5,1,0.4001303,59.9887221338,25100,2,1,-2,-2,4,5,0,248,5,1,0.45003,59.9887221338,117500,1,2,2,-2,0,5,0,249,5,1,0.3833706,59.9887221338,93100,2,2,2,-2,0,6,45,250,6,1,0.5833629,59.9887221338,80100,2,1,-2,-2,4,5,0,251,5,1,0.4666993,59.9887221338,153100,2,1,-2,2,0,6,45,252,6,1,0.4667121,59.9887221338,7100,2,1,-2,2,0,5,0,253,5,1,0.5834183,59.9887221338,63100,2,2,-2,-2,4,6,45,254,6,1,0.4834386,59.9887221338,43100,2,1,-2,-2,4,6,45,255,6,1,0.5000496,59.9887221338,87100,2,1,2,2,4,6,45,256,6,1,0.533326,59.9887221338,66100,2,2,2,-2,0,6,45,257,6,1,0.5000451,59.9887221338,111100,2,2,-2,2,0,6,45,258,6,1,0.4834572,59.9887221338,48100,2,2,2,2,4,5,0,259,5,1,1.699912,59.9887221338,55100,2,1,-2,-2,4,5,0,260,5,1,0.4677389,59.9887221338,18100,2,1,2,2,4,5,0,261,5,1,0.5172718,59.9887221338,136100,2,1,-2,2,0,6,45,262,6,1,0.5166238,59.9887221338,65100,2,1,-2,-2,4,5,0,263,5,1,0.4666345,59.9887221338,96100,2,1,-2,-2,4,5,0,264,5,1,0.4334788,59.9887221338,16100,2,2,2,-2,0,5,0,265,5,1,0.4500875,59.9887221338,22100,2,1,-2,2,0,5,0,266,5,1,0.450022,59.9887221338,80100,2,2,2,2,4,5,0,267,5,1,0.3833727,59.9887221338,79100,2,1,2,2,4,6,45,268,6,1,0.4833711,59.9887221338,30100,2,2,-2,-2,4,5,0,269,5,1,0.6834773,59.9887221338,129100,2,2,-2,-2,4,6,45,270,6,1,0.7833754,59.9887221338,2100,2,1,2,2,4,5,0,271,5,1,0.6333521,59.9887221338,63500,1,2,2,2,4,6,45,272,6,1,0.9167288,59.9887221338,73100,2,2,2,-2,0,5,0,273,5,1,0.5333838,59.9887221338,66100,2,1,-2,2,0,6,45,274,6,1,0.4333495,59.9887221338,157100,2,1,-2,2,0,5,0,275,5,1,0.6333768,59.9887221338,92500,1,1,-2,2,0,5,0,276,5,1,0.5000417,59.9887221338,106100,2,2,2,-2,0,6,45,277,5,0,0.4186091,59.9887221338,41100,2,1,2,-2,0,5,0,278,5,1,0.8500504,59.9887221338,17100,2,2,2,-2,0,5,0,279,5,1,0.4666579,59.9887221338,152100,2,2,-2,-2,4,6,45,280,6,1,0.4167265,59.9887221338,72100,2,1,-2,2,0,5,0,281,6,0,0.4679967,59.9887221338,30100,2,1,2,-2,0,5,0,282,5,1,0.4186195,59.9887221338,111100,2,2,-2,-2,4,6,45,283,6,1,0.4667041,59.9887221338,108100,2,2,-2,-2,4,5,0,284,5,1,0.3834105,59.9887221338,26100,2,2,2,-2,0,6,45,285,6,1,0.5842915,59.9887221338,60100,2,2,-2,2,0,6,45,286,6,1,0.4673039,59.9887221338,45100,2,1,2,-2,0,6,45,287,6,1,0.6501227,59.9887221338,158100,2,1,2,-2,0,6,45,288,6,1,0.4834045,59.9887221338,105100,2,1,2,-2,0,5,0,289,5,1,0.5500161,59.9887221338,104500,1,1,-2,2,0,6,45,290,6,1,0.5833345,59.9887221338,9100,2,2,-2,-2,4,6,45,291,6,1,0.7833961,59.9887221338,10100,2,1,-2,-2,4,6,45,292,6,1,0.4853738,59.9887221338,125500,1,2,2,2,4,6,45,293,6,1,0.4667585,59.9887221338,131100,2,2,2,2,4,5,0,294,5,1,0.5667578,59.9887221338,173500,1,1,-2,-2,4,5,0,295,5,1,0.4500545,59.9887221338,173500,1,2,2,-2,0,5,0,296,5,1,0.433407,59.9887221338,27100,2,1,2,2,4,6,45,297,6,1,0.4669013,59.9887221338,123500,1,1,2,-2,0,5,0,298,5,1,0.4666841,59.9887221338,37100,2,2,-2,-2,4,5,0,299,5,1,0.5999715,59.9887221338,91100,2,2,2,2,4,6,45,300,6,1,0.5516254,59.9887221338,65100,2,2,2,-2,0,6,45,301,6,1,1.1000209,59.9887221338,69500,1,1,2,2,4,6,45,302,6,1,0.5002345,59.9887221338,93100,2,1,-2,-2,4,6,45,303,6,1,0.6000545,59.9887221338,63100,2,2,-2,2,0,5,0,304,5,1,0.7500333,59.9887221338,49100,2,2,-2,2,0,5,0,305,5,1,0.5343066,59.9887221338,8100,2,1,-2,2,0,5,0,306,5,1,0.9338843,59.9887221338,141100,2,2,-2,-2,4,6,45,307,6,1,0.5000502,59.9887221338,75100,2,1,2,2,4,6,45,308,6,1,0.4500375,59.9887221338,23100,2,2,-2,2,0,6,45,309,6,1,0.6334437,59.9887221338,25100,2,2,2,-2,0,5,0,310,5,1,0.5334649,59.9887221338,65100,2,2,2,2,4,5,0,311,5,1,1.0858341,59.9887221338,131500,1,2,2,-2,0,6,45,312,6,1,0.4999946,59.9887221338,35100,2,1,-2,-2,4,5,0,313,5,1,0.6514103,59.9887221338,77100,2,1,-2,2,0,5,0,314,5,1,0.5000835,59.9887221338,38100,2,1,-2,-2,4,6,45,315,6,1,1.0000249,59.9887221338,116100,2,1,2,2,4,6,45,316,6,1,0.9001221,59.9887221338,122100,2,1,-2,-2,4,5,0,317,5,1,0.5501119,59.9887221338,65100,2,1,-2,2,0,5,0,318,5,1,0.5667537,59.9887221338,79100,2,2,-2,-2,4,5,0,319,5,1,0.5000557,59.9887221338,113100,2,1,-2,-2,4,5,0,320,5,1,0.3167189,59.9887221338,31500,1,2,2,2,4,5,0,321,5,1,0.3834688,59.9887221338,37100,2,2,-2,2,0,5,0,322,5,1,0.9167207,59.9887221338,37100,2,1,2,2,4,5,0,323,5,1,0.4667674,59.9887221338,124100,2,2,2,2,4,6,45,324,6,1,0.6000215,59.9887221338,101100,2,1,-2,2,0,5,0,325,5,1,4.1832945,59.9887221338,31500,1,2,2,-2,0,5,0,326,5,1,0.416794,59.9887221338,71100,2,1,2,2,4,6,45,327,5,0,0.3667004,59.9887221338,101500,1,2,2,-2,0,5,0,328,5,1,0.566693,59.9887221338,91100,2,2,2,-2,0,5,0,329,5,1,0.4000432,59.9887221338,106100,2,2,2,2,4,5,0,330,5,1,0.4501237,59.9887221338,113100,2,2,2,-2,0,6,45,331,6,1,0.533428,59.9887221338,129100,2,2,-2,2,0,5,0,332,5,1,0.9500426,59.9887221338,20100,2,2,2,-2,0,6,45,333,6,1,0.5166508,59.9887221338,36100,2,2,2,-2,0,6,45,334,6,1,0.551629,59.9887221338,48100,2,2,2,-2,0,5,0,335,5,1,0.4833818,59.9887221338,1100,2,2,2,-2,0,6,45,336,6,1,0.4834453,59.9887221338,101100,2,1,-2,-2,4,6,45,337,6,1,0.4500461,59.9887221338,141500,1,1,-2,2,0,5,0,338,5,1,0.5333697,59.9887221338,162100,2,2,2,2,4,5,0,339,5,1,0.500057,59.9887221338,45100,2,1,2,2,4,5,0,340,5,1,0.4666997,59.9887221338,134100,2,2,-2,2,0,5,0,341,5,1,0.4834175,59.9887221338,134100,2,2,-2,-2,4,6,45,342,6,1,0.500054,59.9887221338,141100,2,2,-2,2,0,6,45,343,6,1,0.3340721,59.9887221338,57100,2,1,-2,-2,4,6,45,344,6,1,0.466706,59.9887221338,124100,2,1,-2,2,0,5,0,345,5,1,0.5501341,59.9887221338,142100,2,2,2,2,4,5,0,346,5,1,0.4167924,59.9887221338,153100,2,2,2,-2,0,5,0,347,5,1,0.4167203,59.9887221338,98100,2,2,-2,2,0,5,0,348,5,1,0.5999758,59.9887221338,5100,2,1,2,-2,0,5,0,349,5,1,0.4500295,59.9887221338,115100,2,1,-2,2,0,6,45,350,6,1,0.467697,59.9887221338,4100,2,2,2,2,4,6,45,351,6,1,0.4666921,59.9887221338,106100,2,1,-2,-2,4,6,45,352,6,1,0.4835975,59.9887221338,110100,2,2,2,2,4,6,45,353,6,1,0.5333453,59.9887221338,86100,2,2,2,-2,0,5,0,354,5,1,0.5333767,59.9887221338,87100,2,2,-2,2,0,5,0,355,5,1,0.850101,59.9887221338,120100,2,2,2,2,4,6,45,356,6,1,0.4667907,59.9887221338,66100,2,1,-2,-2,4,6,45,357,6,1,0.5167213,59.9887221338,131100,2,2,2,-2,0,6,45,358,6,1,0.4667091,59.9887221338,86100,2,1,-2,-2,4,6,45,359,6,1,0.5000271,59.9887221338,86100,2,2,2,2,4,6,45,360,6,1,0.5344154,59.9887221338,21500,1,1,2,2,4,5,0,361,5,1,0.6000457,59.9887221338,98100,2,1,2,-2,0,5,0,362,5,1,0.5833958,59.9887221338,47100,2,1,-2,2,0,6,45,363,6,1,1.7666652,59.9887221338,31500,1,1,-2,-2,4,6,45,364,6,1,0.4833888,59.9887221338,2100,2,1,2,-2,0,6,45,365,6,1,0.4834347,59.9887221338,106100,2,1,-2,2,0,6,45,366,6,1,0.4667604,59.9887221338,18500,1,2,2,-2,0,5,0,367,5,1,0.4167166,59.9887221338,42100,2,2,2,2,4,5,0,368,5,1,0.5167899,59.9887221338,12500,1,2,2,2,4,5,0,369,5,1,0.7000165,59.9887221338,162100,2,1,-2,-2,4,6,45,370,5,0,0.4833868,59.9887221338,146100,2,1,-2,-2,4,5,0,371,5,1,0.5500363,59.9887221338,33100,2,2,-2,2,0,6,45,372,6,1,1.1333338,59.9887221338,142100,2,1,-2,-2,4,5,0,373,5,1,0.8500486,59.9887221338,73100,2,1,-2,-2,4,6,45,374,6,1,1.2667539,59.9887221338,146100,2,2,2,-2,0,6,45,375,6,1,0.5500234,59.9887221338,80100,2,1,-2,2,0,5,0,376,5,1,0.7000239,59.9887221338,32100,2,2,2,-2,0,5,0,377,5,1,0.8167864,59.9887221338,21500,1,2,-2,2,0,5,0,378,5,1,0.5006859,59.9887221338,22100,2,2,2,-2,0,6,45,379,6,1,0.5167352,59.9887221338,143100,2,1,-2,-2,4,6,45,380,6,1,0.4833648,59.9887221338,121500,1,1,-2,-2,4,6,45,381,6,1,0.8500301,59.9887221338,41500,1,1,2,-2,0,6,45,382,6,1,1.5165184,59.9887221338,115100,2,1,-2,-2,4,5,0,383,5,1,0.500016,59.9887221338,120100,2,1,-2,2,0,5,0,384,5,1,0.4667454,59.9887221338,80100,2,2,2,-2,0,6,45,385,6,1,0.5515123,59.9887221338,129100,2,1,2,-2,0,6,45,386,6,1,0.4833662,59.9887221338,3100,2,1,-2,-2,4,6,45,387,6,1,0.6834376,59.9887221338,121100,2,1,2,2,4,5,0,388,5,1,1.6834258,59.9887221338,49100,2,2,-2,-2,4,6,45,389,6,1,0.4833703,59.9887221338,71100,2,2,-2,-2,4,6,45,390,6,1,0.5167096,59.9887221338,60100,2,1,2,-2,0,6,45,391,6,1,0.550121,59.9887221338,127100,2,2,2,2,4,6,45,392,6,1,2.5000315,59.9887221338,12500,1,1,-2,-2,4,5,0,393,5,1,0.5833625,59.9887221338,69100,2,1,-2,-2,4,6,45,394,6,1,1.1000287,59.9887221338,77100,2,2,2,2,4,6,45,395,6,1,0.4672051,59.9887221338,123500,1,2,-2,-2,4,5,0,396,5,1,0.5667986,59.9887221338,22500,1,2,2,-2,0,5,0,397,5,1,0.500056,59.9887221338,107100,2,2,2,-2,0,5,0,398,5,1,0.5000984,59.9887221338,157100,2,2,2,2,4,6,45,399,6,1,0.5000231,59.9887221338,56100,2,2,-2,2,0,6,45,400,6,1,0.5668079,59.9887221338,103500,1,1,2,-2,0,5,0,401,5,1,1.5000029,59.9887221338,123500,1,1,2,2,4,6,45,402,6,1,0.551299,59.9887221338,143500,1,2,-2,-2,4,6,45,403,6,1,0.6000277,59.9887221338,157100,2,1,-2,-2,4,5,0,404,5,1,0.5687328,59.9887221338,60100,2,2,-2,-2,4,5,0,405,5,1,0.7333996,59.9887221338,58100,2,1,-2,2,0,5,0,406,5,1,0.8001241,59.9887221338,121100,2,2,-2,-2,4,5,0,407,5,1,2.7165888,59.9887221338,70100,2,2,2,-2,0,6,45,408,6,1,0.5333453,59.9887221338,56100,2,2,-2,-2,4,5,0,409,5,1,0.5166211,59.9887221338,17100,2,1,-2,-2,4,6,45,410,6,1,0.4833589,59.9887221338,140500,1,1,-2,2,0,6,45,411,6,1,0.4833925,59.9887221338,23100,2,2,-2,-2,4,6,45,412,6,1,0.450011,59.9887221338,121100,2,1,2,-2,0,5,0,413,5,1,0.4006015,59.9887221338,83100,2,1,2,-2,0,6,45,414,6,1,0.8182894,59.9887221338,22500,1,1,-2,2,0,5,0,415,5,1,0.7166613,59.9887221338,113100,2,2,2,2,4,5,0,416,5,1,3.5499655,59.9887221338,132500,1,2,2,-2,0,5,0,417,5,1,0.3685592,59.9887221338,173500,1,2,2,2,4,6,45,418,6,1,0.5500506,59.9887221338,95100,2,1,-2,-2,4,6,45,419,6,1,0.5667158,59.9887221338,18100,2,2,-2,2,0,5,0,420,5,1,0.4840674,59.9887221338,48100,2,1,-2,2,0,5,0,421,5,1,0.3833843,59.9887221338,47100,2,2,2,2,4,6,45,422,6,1,0.5834033,59.9887221338,144100,2,1,2,2,4,6,45,423,6,1,0.4667334,59.9887221338,45100,2,2,-2,-2,4,6,45,424,6,1,0.600039,59.9887221338,138100,2,2,2,2,4,6,45,425,6,1,0.4666527,59.9887221338,35100,2,1,-2,2,0,5,0,426,5,1,0.7000469,59.9887221338,12500,1,1,-2,2,0,6,45,427,6,1,0.4667802,59.9887221338,57100,2,2,2,2,4,6,45,428,6,1,0.6500319,59.9887221338,63100,2,1,2,2,4,6,45,429,6,1,0.8842401,59.9887221338,121500,1,1,-2,2,0,5,0,430,5,1,1.10009,59.9887221338,40100,2,2,2,-2,0,6,45,431,6,1,0.5834554,59.9887221338,69100,2,2,2,2,4,6,45,432,6,1,0.5167769,59.9887221338,140500,1,2,2,-2,0,6,45,433,5,0,2.8500576,59.9887221338,2100,2,2,-2,-2,4,5,0,434,5,1,0.5833788,59.9887221338,58100,2,2,2,-2,0,5,0,435,5,1,0.6516331,59.9887221338,92500,1,1,-2,-2,4,5,0,436,5,1,1.0333662,59.9887221338,62100,2,1,-2,2,0,5,0,437,5,1,0.4667035,59.9887221338,5100,2,2,-2,2,0,5,0,438,5,1,0.3500537,59.9887221338,11100,2,2,2,2,4,6,45,439,6,1,0.483437,59.9887221338,63500,1,1,-2,-2,4,6,45,440,6,1,0.5502307,59.9887221338,105100,2,2,-2,-2,4,5,0,441,6,0,0.700077,59.9887221338,143500,1,1,2,-2,0,6,45,442,6,1,0.7333516,59.9887221338,3100,2,1,-2,2,0,5,0,443,5,1,0.5667076,59.9887221338,125500,1,2,2,-2,0,5,0,444,5,1,0.6833717,59.9887221338,52100,2,2,2,-2,0,6,45,445,6,1,3.1166752,59.9887221338,30100,2,2,-2,2,0,6,45,446,6,1,0.5667041,59.9887221338,129100,2,1,2,2,4,6,45,447,6,1,0.4333748,59.9887221338,33500,1,2,2,2,4,6,45,448,6,1,0.3667118,59.9887221338,105500,1,2,2,-2,0,6,45,449,6,1,0.5334061,59.9887221338,132100,2,2,2,-2,0,6,45,450,6,1,0.516758,59.9887221338,125100,2,2,-2,-2,4,6,45,451,6,1,0.5333386,59.9887221338,4500,1,1,2,2,4,5,0,452,5,1,1.883439,59.9887221338,4500,1,2,-2,-2,4,6,45,453,6,1,0.5166425,59.9887221338,143500,1,1,2,2,4,5,0,454,5,1,0.5333793,59.9887221338,153100,2,1,-2,-2,4,6,45,455,6,1,0.4833704,59.9887221338,117100,2,1,-2,-2,4,5,0,456,5,1,0.6001478,59.9887221338,131100,2,1,-2,-2,4,5,0,457,5,1,0.4333858,59.9887221338,68100,2,2,-2,-2,4,6,45,458,6,1,0.7167174,59.9887221338,33500,1,1,-2,-2,4,5,0,459,5,1,0.6167049,59.9887221338,110100,2,2,2,-2,0,5,0,460,5,1,0.3834404,59.9887221338,33100,2,1,2,2,4,6,45,461,6,1,0.5517676,59.9887221338,68100,2,2,-2,2,0,6,45,462,5,0,1.3679016,59.9887221338,17100,2,1,-2,2,0,5,0,463,5,1,0.5000564,59.9887221338,9100,2,2,-2,2,0,6,45,464,6,1,0.5505616,59.9887221338,58100,2,1,-2,-2,4,5,0,465,5,1,0.5167361,59.9887221338,116100,2,2,-2,-2,4,6,45,466,5,0,0.1833764,59.9887221338,108500,1,2,-2,2,0,5,0,467,5,1,0.4501324,59.9887221338,109100,2,1,-2,-2,4,6,45,468,6,1,0.483382,59.9887221338,136100,2,2,2,-2,0,5,0,469,5,1,0.5167247,59.9887221338,7100,2,2,2,-2,0,6,45,470,6,1,0.5499705,59.9887221338,84100,2,1,-2,2,0,6,45,471,6,1,0.3833907,59.9887221338,20100,2,1,-2,-2,4,6,45,472,5,0,0.4000326,59.9887221338,21500,1,2,-2,-2,4,6,45,473,6,1,0.6518104,59.9887221338,26500,1,2,2,2,4,6,45,474,6,1,0.3833568,59.9887221338,98100,2,2,-2,-2,4,5,0,475,5,1,0.4667584,59.9887221338,47100,2,2,2,-2,0,5,0,476,5,1,0.483451,59.9887221338,73100,2,1,-2,2,0,5,0,477,5,1,0.4833807,59.9887221338,153100,2,2,2,2,4,6,45,478,6,1,0.4667435,59.9887221338,29500,1,2,-2,2,0,5,0,479,5,1,0.4834208,59.9887221338,86100,2,1,-2,2,0,5,0,480,5,1,0.3833434,59.9887221338,26100,2,1,-2,2,0,6,45,481,6,1,0.4851925,59.9887221338,11100,2,2,2,-2,0,6,45,482,6,1,0.5000538,59.9887221338,43100,2,1,-2,2,0,6,45,483,6,1,0.7834589,59.9887221338,158100,2,1,2,2,4,6,45,484,6,1,0.5167168,59.9887221338,142100,2,2,2,-2,0,6,45,485,5,0,0.6000657,59.9887221338,79100,2,2,-2,2,0,5,0,486,5,1,0.5500583,59.9887221338,91100,2,1,-2,-2,4,6,45,487,6,1,2.3666407,59.9887221338,29500,1,1,2,-2,0,6,45,488,6,1,0.5334679,59.9887221338,134100,2,1,2,-2,0,6,45,489,6,1,0.4834766,59.9887221338,140500,1,2,2,2,4,6,45,490,6,1,0.4334041,59.9887221338,76100,2,2,2,2,4,6,45,491,6,1,0.4167931,59.9887221338,32100,2,1,-2,2,0,6,45,492,6,1,0.4834592,59.9887221338,128500,1,2,2,-2,0,6,45,493,6,1,0.4351641,59.9887221338,63500,1,1,-2,2,0,5,0,494,5,1,0.500119,59.9887221338,58100,2,2,2,2,4,5,0,495,5,1,0.434325,59.9887221338,173500,1,1,-2,2,0,6,45,496,6,1,0.4501354,59.9887221338,40100,2,2,2,2,4,6,45,497,6,1,0.3837502,59.9887221338,158100,2,2,-2,-2,4,5,0,498,5,1,0.5667949,59.9887221338,143500,1,2,-2,2,0,5,0,499,5,1,0.4668085,59.9887221338,33100,2,2,-2,-2,4,6,45,500,6,1,0.5167009,59.9887221338,101100,2,2,2,2,4,5,0,501,5,1,0.516765,59.9887221338,16100,2,1,-2,-2,4,5,0,502,5,1,0.466774,59.9887221338,103500,1,1,2,2,4,6,45,503,6,1,0.4834721,59.9887221338,61100,2,1,-2,2,0,5,0,504,5,1,0.5500971,59.9887221338,132100,2,2,2,2,4,5,0,505,5,1,0.5843545,59.9887221338,81100,2,2,2,2,4,6,45,506,6,1,0.5000297,59.9887221338,9100,2,1,2,2,4,5,0,507,5,1,0.78367,59.9887221338,96100,2,1,-2,2,0,5,0,508,5,1,0.5000331,59.9887221338,71100,2,2,-2,2,0,6,45,509,6,1,0.5167844,59.9887221338,130500,1,1,2,-2,0,5,0,510,5,1,0.5500191,59.9887221338,31500,1,1,-2,2,0,5,0,511,5,1,0.4333927,59.9887221338,61100,2,1,-2,-2,4,5,0,512,5,1,0.4333803,59.9887221338,150100,2,1,-2,2,0,6,45,513,6,1,0.4499868,59.9887221338,66100,2,2,2,2,4,6,45,514,6,1,0.4333986,59.9887221338,43100,2,2,2,2,4,6,45,515,6,1,0.3833355,59.9887221338,108100,2,1,2,-2,0,6,45,516,6,1,0.5668029,59.9887221338,42100,2,1,-2,-2,4,5,0,517,5,1,0.43347,59.9887221338,127100,2,1,-2,2,0,5,0,518,5,1,0.4166945,59.9887221338,22500,1,2,2,2,4,5,0,519,5,1,0.3499912,59.9887221338,41500,1,2,-2,2,0,6,45,520,6,1,0.4500836,59.9887221338,13100,2,1,2,2,4,5,0,521,5,1,0.5168045,59.9887221338,121500,1,2,2,-2,0,6,45,522,6,1,0.5334674,59.9887221338,4100,2,2,2,-2,0,5,0,523,5,1,0.5499765,59.9887221338,105500,1,1,-2,-2,4,5,0,524,5,1,0.4333786,59.9887221338,83100,2,2,-2,-2,4,5,0,525,5,1,0.5667406,59.9887221338,35100,2,2,2,2,4,6,45,526,6,1,0.5678304,59.9887221338,141100,2,1,2,-2,0,5,0,527,5,1,0.6334002,59.9887221338,91100,2,1,-2,2,0,6,45,528,5,0,0.9333561,59.9887221338,42100,2,2,2,-2,0,5,0,529,5,1,0.4001294,59.9887221338,18100,2,2,-2,-2,4,5,0,530,5,1,0.5167821,59.9887221338,2100,2,2,-2,2,0,6,45,531,6,1,0.4000336,59.9887221338,132500,1,2,2,2,4,5,0,532,5,1,0.433469,59.9887221338,172500,1,2,2,2,4,5,0,533,5,1,0.4000427,59.9887221338,1100,2,1,-2,2,0,5,0,534,5,1,0.3833642,59.9887221338,48100,2,1,-2,-2,4,6,45,535,6,1,0.53341,59.9887221338,62100,2,2,2,2,4,6,45,536,6,1,0.5167307,59.9887221338,121500,1,2,2,2,4,6,45,537,6,1,0.6173589,59.9887221338,69100,2,2,2,-2,0,6,45,538,6,1,0.9501083,59.9887221338,76100,2,2,2,-2,0,6,45,539,6,1,0.7000431,59.9887221338,31100,2,2,2,-2,0,6,45,540,6,1,1.4000279,59.9887221338,87100,2,1,2,-2,0,6,45,541,6,1,0.6334034,59.9887221338,131500,1,1,-2,-2,4,6,45,542,6,1,0.4667301,59.9887221338,117100,2,2,2,2,4,5,0,543,5,1,0.500039,59.9887221338,16100,2,2,2,2,4,6,45,544,5,0,0.4333871,59.9887221338,70100,2,1,-2,-2,4,5,0,545,5,1,0.5333958,59.9887221338,4100,2,1,-2,2,0,6,45,546,6,1,0.5347387,59.9887221338,61100,2,2,2,-2,0,5,0,547,5,1,0.6833639,59.9887221338,72100,2,2,2,-2,0,6,45,548,6,1,0.5666778,59.9887221338,95100,2,2,2,-2,0,5,0,549,5,1,1.9166921,59.9887221338,10100,2,2,2,2,4,6,45,550,6,1,0.5333146,59.9887221338,101500,1,2,2,2,4,5,0,551,5,1,0.6333919,59.9887221338,138100,2,1,-2,-2,4,6,45,552,6,1,0.5167133,59.9887221338,109100,2,1,-2,2,0,5,0,553,5,1,0.5500489,59.9887221338,115100,2,2,2,2,4,5,0,554,5,1,0.4680248,59.9887221338,138500,1,1,2,-2,0,5,0,555,5,1,0.533456,59.9887221338,68100,2,1,2,-2,0,5,0,556,5,1,0.5333943,59.9887221338,81100,2,2,2,-2,0,5,0,557,5,1,0.4167056,59.9887221338,18500,1,1,-2,-2,4,5,0,558,5,1,0.4333914,59.9887221338,16100,2,1,-2,2,0,6,45,559,6,1,0.466637,59.9887221338,132500,1,1,-2,-2,4,5,0,560,5,1,0.4167354,59.9887221338,103500,1,2,-2,-2,4,5,0,561,5,1,0.4166274,59.9887221338,130500,1,2,-2,-2,4,6,45,562,6,1,0.4834767,59.9887221338,18500,1,1,-2,2,0,5,0,563,5,1,0.4000516,59.9887221338,128500,1,2,2,2,4,6,45,564,6,1,0.516727,59.9887221338,26500,1,1,-2,2,0,5,0,565,5,1,0.5666713,59.9887221338,125100,2,1,2,2,4,6,45,566,6,1,0.4001379,59.9887221338,18500,1,2,2,2,4,6,45,567,6,1,0.4667392,59.9887221339,43100,2,2,2,-2,0,5,45,0,5,1,1.9833004,59.9890819939,22500,1,2,2,2,4,5,45,1,5,1,0.8000355,59.9890819939,32100,2,2,-2,2,0,6,0,2,6,1,2.0833336,59.9890819939,4100,2,2,2,2,4,6,0,3,6,1,1.216639,59.9890819939,146100,2,2,2,2,4,5,45,4,5,1,0.9834479,59.9890819939,81100,2,2,-2,-2,4,5,45,5,5,1,0.7001892,59.9890819939,5100,2,2,-2,-2,4,6,0,6,6,1,1.3167652,59.9890819939,68500,1,2,-2,2,0,6,0,7,6,1,2.2167406,59.9890819939,105500,1,1,2,-2,0,5,45,8,5,1,1.1167682,59.9890819939,75100,2,2,2,-2,0,6,0,9,6,1,0.9333775,59.9890819939,70100,2,1,-2,2,0,6,0,10,6,1,1.2834277,59.9890819939,33500,1,2,-2,2,0,6,0,11,6,1,1.0167642,59.9890819939,56100,2,2,-2,2,0,5,45,12,5,1,1.4503856,59.9890819939,11100,2,2,2,2,4,5,45,13,5,1,0.7667878,59.9890819939,65100,2,1,-2,-2,4,5,45,14,5,1,1.0834195,59.9890819939,94100,2,2,2,-2,0,6,0,15,6,1,1.2000192,59.9890819939,60100,2,1,-2,-2,4,5,45,16,5,1,0.8853117,59.9890819939,35100,2,1,2,-2,0,6,0,17,6,1,1.1347489,59.9890819939,110100,2,1,2,2,4,6,0,18,6,1,1.3333462,59.9890819939,161100,2,1,-2,-2,4,6,0,19,6,1,1.0837669,59.9890819939,131100,2,1,2,-2,0,6,0,20,6,1,0.9333201,59.9890819939,35100,2,1,2,2,4,6,0,21,6,1,0.8000222,59.9890819939,69500,1,2,-2,-2,4,6,0,22,6,1,0.9667024,59.9890819939,76100,2,2,-2,2,0,5,45,23,5,1,0.8350248,59.9890819939,9100,2,1,-2,-2,4,6,0,24,6,1,1.9666145,59.9890819939,146100,2,1,-2,-2,4,5,45,25,5,1,0.9833905,59.9890819939,17100,2,2,-2,2,0,5,45,26,5,1,1.9666643,59.9890819939,153100,2,2,-2,-2,4,6,0,27,6,1,1.6833148,59.9890819939,63500,1,2,2,2,4,5,45,28,5,1,1.6332929,59.9890819939,4100,2,1,-2,2,0,5,45,29,5,1,1.0167289,59.9890819939,8100,2,2,-2,2,0,6,0,30,6,1,0.9167588,59.9890819939,87100,2,1,2,-2,0,5,45,31,5,1,0.5500383,59.9890819939,142100,2,1,2,-2,0,5,45,32,5,1,0.5666379,59.9890819939,150100,2,2,-2,-2,4,6,0,33,6,1,1.4166296,59.9890819939,38100,2,1,-2,-2,4,6,0,34,6,1,1.1500186,59.9890819939,108500,1,2,-2,2,0,6,0,35,6,1,1.2333454,59.9890819939,20100,2,2,-2,2,0,6,0,36,6,1,0.8666393,59.9890819939,37100,2,1,2,2,4,5,45,37,5,1,1.1000109,59.9890819939,143500,1,1,2,-2,0,6,0,38,6,1,1.7334239,59.9890819939,92500,1,2,2,-2,0,5,45,39,5,1,1.1333063,59.9890819939,138500,1,1,2,2,4,5,45,40,5,1,1.0167168,59.9890819939,94100,2,1,-2,-2,4,6,0,41,6,1,1.6167697,59.9890819939,12500,1,2,2,2,4,6,0,42,6,1,1.2666544,59.9890819939,144100,2,2,-2,-2,4,6,0,43,6,1,0.8000434,59.9890819939,57100,2,1,-2,-2,4,5,45,44,5,1,0.8667777,59.9890819939,65100,2,2,2,2,4,6,0,45,6,1,1.3020582,59.9890819939,95100,2,1,2,-2,0,5,45,46,5,1,1.0334325,59.9890819939,11100,2,2,2,-2,0,6,0,47,6,1,1.133392,59.9890819939,111100,2,2,2,2,4,6,0,48,6,1,1.0833708,59.9890819939,29100,2,1,-2,-2,4,5,45,49,5,1,0.8334605,59.9890819939,37100,2,2,-2,-2,4,5,45,50,5,1,0.7331528,59.9890819939,108500,1,1,2,-2,0,5,45,51,5,1,0.5501329,59.9890819939,63100,2,1,2,-2,0,5,45,52,5,1,0.6835593,59.9890819939,2100,2,1,-2,-2,4,6,0,53,6,1,1.2333826,59.9890819939,26100,2,1,2,2,4,5,45,54,5,1,1.1833673,59.9890819939,84100,2,1,2,-2,0,5,45,55,5,1,1.3000953,59.9890819939,76100,2,2,-2,-2,4,5,45,56,5,1,0.9833908,59.9890819939,132100,2,2,2,-2,0,5,45,57,5,1,0.8333856,59.9890819939,66100,2,1,2,-2,0,5,45,58,5,1,1.2167079,59.9890819939,18100,2,2,2,-2,0,5,45,59,5,1,0.8678351,59.9890819939,41500,1,1,2,-2,0,6,0,60,6,1,1.0333634,59.9890819939,131100,2,2,-2,2,0,5,45,61,5,1,1.5501009,59.9890819939,117500,1,1,-2,2,0,5,45,62,5,1,0.8834157,59.9890819939,132500,1,2,-2,2,0,6,0,63,6,1,0.8501289,59.9890819939,83100,2,2,2,2,4,6,0,64,6,1,0.8833993,59.9890819939,136100,2,2,2,2,4,5,45,65,5,1,0.7667593,59.9890819939,134100,2,1,2,-2,0,6,0,66,6,1,1.18336,59.9890819939,47100,2,1,-2,2,0,5,45,67,5,1,0.8001272,59.9890819939,9100,2,2,2,2,4,6,0,68,6,1,0.8500276,59.9890819939,22500,1,1,-2,2,0,6,0,69,6,1,2.1334058,59.9890819939,138500,1,2,-2,2,0,5,45,70,5,1,0.93413,59.9890819939,27100,2,1,-2,-2,4,6,0,71,6,1,1.0850288,59.9890819939,131100,2,1,2,2,4,5,45,72,5,1,0.7001055,59.9890819939,11100,2,1,-2,2,0,6,0,73,6,1,0.8500187,59.9890819939,63500,1,1,-2,-2,4,5,45,74,5,1,0.7500366,59.9890819939,109100,2,1,-2,2,0,6,0,75,6,1,0.7520682,59.9890819939,55100,2,2,2,2,4,5,45,76,5,1,0.7333618,59.9890819939,138100,2,1,2,-2,0,5,45,77,5,1,0.7500182,59.9890819939,143100,2,2,2,-2,0,5,45,78,5,1,0.8667836,59.9890819939,58100,2,2,-2,-2,4,5,45,79,5,1,0.9001181,59.9890819939,72100,2,2,2,2,4,5,45,80,5,1,0.6834516,59.9890819939,31500,1,1,-2,2,0,6,0,81,6,1,1.2001151,59.9890819939,42100,2,1,2,-2,0,5,45,82,5,1,0.9499707,59.9890819939,70100,2,2,2,-2,0,5,45,83,5,1,0.75195,59.9890819939,84100,2,1,2,2,4,5,45,84,5,1,0.9001139,59.9890819939,26500,1,1,2,2,4,5,45,85,5,1,0.9342704,59.9890819939,138500,1,1,2,-2,0,5,45,86,5,1,0.7667152,59.9890819939,18100,2,1,-2,-2,4,6,0,87,6,1,0.9666766,59.9890819939,58100,2,1,2,-2,0,6,0,88,6,1,0.7334507,59.9890819939,29500,1,1,2,2,4,6,0,89,6,1,0.8833988,59.9890819939,61100,2,1,2,2,4,6,0,90,6,1,0.7334118,59.9890819939,121100,2,1,-2,2,0,5,45,91,5,1,0.6834041,59.9890819939,105100,2,2,2,2,4,5,45,92,5,1,0.6333586,59.9890819939,60100,2,2,2,-2,0,6,0,93,6,1,0.5834008,59.9890819939,38100,2,2,2,-2,0,6,0,94,6,1,1.4999968,59.9890819939,70100,2,2,2,2,4,5,45,95,5,1,0.6000424,59.9890819939,113100,2,1,2,2,4,6,0,96,6,1,0.8334103,59.9890819939,30100,2,2,-2,2,0,6,0,97,6,1,1.4500282,59.9890819939,95100,2,2,-2,2,0,6,0,98,6,1,0.7166794,59.9890819939,52100,2,1,2,2,4,6,0,99,6,1,0.6500369,59.9890819939,142100,2,2,-2,2,0,5,45,100,5,1,0.6500387,59.9890819939,36100,2,2,2,2,4,6,0,101,6,1,1.6000181,59.9890819939,124100,2,2,2,-2,0,5,45,102,5,1,1.2667484,59.9890819939,111100,2,2,2,-2,0,6,0,103,6,1,1.1666971,59.9890819939,100100,2,1,-2,2,0,6,0,104,6,1,1.4167626,59.9890819939,27100,2,2,2,2,4,6,0,105,6,1,1.6834314,59.9890819939,69100,2,2,-2,-2,4,5,45,106,5,1,0.7179698,59.9890819939,140500,1,2,2,-2,0,5,45,107,5,1,0.9501226,59.9890819939,101500,1,1,2,-2,0,6,0,108,6,1,0.9333417,59.9890819939,10100,2,1,2,-2,0,6,0,109,6,1,1.3834492,59.9890819939,126100,2,1,-2,-2,4,5,45,110,5,1,0.9500284,59.9890819939,13100,2,1,2,-2,0,6,0,111,6,1,0.9833694,59.9890819939,158100,2,1,2,2,4,6,0,112,6,1,1.3166829,59.9890819939,37100,2,1,2,-2,0,6,0,113,6,1,1.0679147,59.9890819939,45100,2,1,2,2,4,5,45,114,5,1,0.6674414,59.9890819939,123500,1,1,2,2,4,5,45,115,5,1,1.5000347,59.9890819939,79100,2,1,2,-2,0,6,0,116,6,1,0.6167404,59.9890819939,117100,2,1,-2,-2,4,6,0,117,6,1,1.1333206,59.9890819939,31500,1,2,2,2,4,6,0,118,6,1,1.3500121,59.9890819939,4500,1,2,-2,-2,4,5,45,119,5,1,1.0167416,59.9890819939,125100,2,1,2,-2,0,6,0,120,6,1,0.700135,59.9890819939,79100,2,1,2,2,4,6,0,121,6,1,1.0833892,59.9890819939,83100,2,1,-2,2,0,5,45,122,5,1,0.5838412,59.9890819939,81100,2,1,2,-2,0,5,45,123,5,1,1.8000941,59.9890819939,125100,2,1,2,2,4,6,0,124,6,1,1.1333878,59.9890819939,28100,2,2,-2,2,0,5,45,125,5,1,1.1166677,59.9890819939,143500,1,2,-2,2,0,6,0,126,6,1,2.000013,59.9890819939,143100,2,1,-2,2,0,5,45,127,5,1,1.0001757,59.9890819939,76100,2,1,2,2,4,6,0,128,6,1,0.8673492,59.9890819939,13100,2,2,-2,-2,4,6,0,129,6,1,1.3665997,59.9890819939,2100,2,2,2,-2,0,6,0,130,6,1,0.7001047,59.9890819939,150100,2,1,2,-2,0,6,0,131,6,1,1.0667667,59.9890819939,125500,1,1,-2,-2,4,6,0,132,6,1,1.1514919,59.9890819939,92500,1,1,-2,-2,4,6,0,133,6,1,0.8167232,59.9890819939,113100,2,2,-2,-2,4,6,0,134,6,1,1.0333884,59.9890819939,28100,2,1,2,2,4,6,0,135,6,1,1.100136,59.9890819939,32100,2,1,2,2,4,6,0,136,6,1,0.6833486,59.9890819939,61100,2,1,2,-2,0,5,45,137,5,1,1.0001219,59.9890819939,113100,2,1,2,-2,0,5,45,138,5,1,0.7499951,59.9890819939,128500,1,1,2,-2,0,6,0,139,6,1,1.483326,59.9890819939,157100,2,2,2,2,4,6,0,140,6,1,1.0667707,59.9890819939,141100,2,1,-2,2,0,5,45,141,5,1,0.7500426,59.9890819939,86100,2,2,2,-2,0,5,45,142,5,1,0.616728,59.9890819939,32100,2,1,2,-2,0,6,0,143,6,1,0.6501053,59.9890819939,8100,2,1,2,-2,0,6,0,144,6,1,1.4332949,59.9890819939,115100,2,1,-2,-2,4,6,0,145,6,1,0.7000398,59.9890819939,77100,2,1,-2,2,0,6,0,146,6,1,1.2334406,59.9890819939,121100,2,1,-2,-2,4,6,0,147,6,1,1.033417,59.9890819939,31100,2,2,2,2,4,5,45,148,5,1,1.5333814,59.9890819939,36100,2,2,2,-2,0,5,45,149,5,1,0.9667949,59.9890819939,121500,1,2,-2,2,0,6,0,150,6,1,0.8166936,59.9890819939,130500,1,2,-2,-2,4,6,0,151,6,1,1.1000149,59.9890819939,79100,2,2,-2,-2,4,6,0,152,6,1,0.8499728,59.9890819939,106100,2,2,-2,-2,4,5,45,153,5,1,1.2836289,59.9890819939,29100,2,2,2,-2,0,5,45,154,5,1,1.3499448,59.9890819939,69100,2,1,2,2,4,6,0,155,6,1,0.5833537,59.9890819939,45100,2,2,-2,2,0,5,45,156,5,1,0.7000428,59.9890819939,52100,2,2,-2,-2,4,6,0,157,6,1,0.7333801,59.9890819939,173500,1,1,2,-2,0,6,0,158,6,1,1.0000061,59.9890819939,158100,2,2,-2,2,0,6,0,159,6,1,1.2166911,59.9890819939,105500,1,2,-2,2,0,6,0,160,6,1,0.5843684,59.9890819939,26500,1,2,-2,2,0,6,0,161,6,1,0.6000497,59.9890819939,9100,2,2,2,-2,0,5,45,162,5,1,0.7333718,59.9890819939,20100,2,1,2,2,4,6,0,163,6,1,1.1014073,59.9890819939,162100,2,1,2,2,4,6,0,164,6,1,0.9166986,59.9890819939,43100,2,1,-2,2,0,5,45,165,5,1,0.6501588,59.9890819939,22100,2,2,2,-2,0,5,45,166,5,1,0.6001219,59.9890819939,116100,2,1,2,-2,0,6,0,167,6,1,0.9500206,59.9890819939,172500,1,1,-2,2,0,5,45,168,5,1,0.983407,59.9890819939,7100,2,2,2,2,4,6,0,169,6,1,0.8667749,59.9890819939,113100,2,2,-2,2,0,6,0,170,6,1,1.1167776,59.9890819939,62100,2,1,-2,-2,4,6,0,171,6,1,1.0001023,59.9890819939,43100,2,2,2,2,4,5,45,172,5,1,1.083439,59.9890819939,33100,2,1,-2,-2,4,5,45,173,5,1,0.8000284,59.9890819939,22500,1,1,-2,-2,4,5,45,174,5,1,0.8667024,59.9890819939,69500,1,1,2,-2,0,6,0,175,6,1,0.9334099,59.9890819939,117100,2,2,2,2,4,6,0,176,6,1,1.1334104,59.9890819939,31100,2,1,-2,2,0,5,45,177,5,1,0.7667105,59.9890819939,157100,2,1,-2,2,0,6,0,178,6,1,0.7500078,59.9890819939,61100,2,2,-2,2,0,5,45,179,5,1,1.1500649,59.9890819939,107100,2,1,-2,-2,4,5,45,180,5,1,0.950009,59.9890819939,93100,2,1,2,-2,0,6,0,181,6,1,0.8185193,59.9890819939,96100,2,2,2,2,4,5,45,182,5,1,0.9667542,59.9890819939,103500,1,2,-2,2,0,5,45,183,5,1,0.9343031,59.9890819939,3100,2,2,-2,2,0,5,45,184,5,1,0.6333884,59.9890819939,10100,2,2,-2,-2,4,5,45,185,5,1,1.1333434,59.9890819939,143500,1,1,2,2,4,5,45,186,5,1,0.7001203,59.9890819939,22500,1,2,2,-2,0,5,45,187,5,1,0.7001264,59.9890819939,18100,2,1,-2,2,0,5,45,188,5,1,0.7500388,59.9890819939,109100,2,2,2,-2,0,5,45,189,5,1,0.6185003,59.9890819939,162100,2,2,-2,2,0,6,0,190,6,1,0.5180581,59.9890819939,125500,1,2,2,2,4,6,0,191,6,1,0.4667864,59.9890819939,125500,1,1,-2,2,0,5,45,192,5,1,0.6667121,59.9890819939,152100,2,1,-2,-2,4,5,45,193,5,1,0.4667307,59.9890819939,143500,1,2,-2,-2,4,6,0,194,6,1,0.6833896,59.9890819939,125100,2,2,-2,-2,4,5,45,195,5,1,0.5667858,59.9890819939,132100,2,1,-2,-2,4,6,0,196,6,1,0.9167054,59.9890819939,103500,1,1,2,2,4,6,0,197,6,1,0.7001107,59.9890819939,75100,2,2,2,2,4,6,0,198,6,1,0.61678,59.9890819939,75100,2,1,-2,2,0,6,0,199,6,1,0.6168009,59.9890819939,101500,1,2,-2,-2,4,5,45,200,5,1,0.7333291,59.9890819939,132100,2,1,-2,2,0,6,0,201,6,1,0.5343777,59.9890819939,7100,2,1,-2,2,0,5,45,202,5,1,0.850102,59.9890819939,79100,2,2,-2,2,0,6,0,203,6,1,0.7666662,59.9890819939,35100,2,2,-2,2,0,5,45,204,5,1,0.8834022,59.9890819939,96100,2,1,-2,-2,4,6,0,205,6,1,0.5668013,59.9890819939,18500,1,2,-2,-2,4,5,45,206,5,1,0.533414,59.9890819939,33500,1,1,2,2,4,5,45,207,5,1,0.7333298,59.9890819939,83100,2,1,-2,-2,4,6,0,208,6,1,0.566765,59.9890819939,71100,2,1,2,-2,0,6,0,209,6,1,0.9334017,59.9890819939,110100,2,2,-2,2,0,6,0,210,6,1,0.6334107,59.9890819939,140500,1,2,2,2,4,6,0,211,6,1,0.6167521,59.9890819939,30100,2,1,2,2,4,5,45,212,5,1,0.6001169,59.9890819939,13100,2,1,2,2,4,6,0,213,6,1,1.3017977,59.9890819939,25100,2,1,-2,-2,4,6,0,214,6,1,0.6667914,59.9890819939,101100,2,1,2,2,4,5,45,215,5,1,0.4167899,59.9890819939,61100,2,2,-2,-2,4,6,0,216,6,1,0.6000185,59.9890819939,120100,2,2,-2,-2,4,5,45,217,5,1,0.7499513,59.9890819939,58100,2,2,-2,2,0,6,0,218,6,1,0.5667252,59.9890819939,42100,2,1,2,2,4,6,0,219,6,1,0.5667082,59.9890819939,17100,2,1,2,2,4,6,0,220,6,1,0.5166552,59.9890819939,16100,2,2,2,-2,0,5,45,221,5,1,0.5001076,59.9890819939,130500,1,2,-2,2,0,5,45,222,5,1,0.5667852,59.9890819939,128500,1,1,2,2,4,5,45,223,5,1,0.583378,59.9890819939,47100,2,1,-2,-2,4,5,45,224,5,1,0.6833914,59.9890819939,123500,1,1,2,-2,0,5,45,225,5,1,0.6338312,59.9890819939,131100,2,2,-2,-2,4,6,0,226,6,1,0.6167148,59.9890819939,31100,2,2,2,-2,0,6,0,227,6,1,1.0167709,59.9890819939,23100,2,1,2,-2,0,6,0,228,6,1,1.4334438,59.9890819939,26100,2,1,2,-2,0,6,0,229,6,1,0.633377,59.9890819939,121500,1,2,-2,-2,4,5,45,230,5,1,0.7333654,59.9890819939,105100,2,2,2,-2,0,6,0,231,6,1,0.583427,59.9890819939,21500,1,2,-2,2,0,6,0,232,6,1,0.5833648,59.9890819939,66100,2,2,-2,2,0,5,45,233,5,1,0.6000693,59.9890819939,140500,1,1,-2,-2,4,5,45,234,5,1,0.5667979,59.9890819939,26100,2,2,-2,2,0,6,0,235,6,1,0.5500896,59.9890819939,138100,2,1,2,2,4,5,45,236,5,1,0.5834323,59.9890819939,106100,2,1,2,-2,0,6,0,237,6,1,0.7001469,59.9890819939,29100,2,2,2,2,4,5,45,238,5,1,0.4834098,59.9890819939,120100,2,2,-2,2,0,5,45,239,5,1,0.5187105,59.9890819939,121100,2,2,2,2,4,5,45,240,5,1,0.4855437,59.9890819939,77100,2,2,2,-2,0,5,45,241,5,1,0.6017683,59.9890819939,69500,1,2,-2,2,0,6,0,242,6,1,0.5353699,59.9890819939,56100,2,1,2,-2,0,5,45,243,5,1,0.4666718,59.9890819939,29100,2,1,-2,2,0,5,45,244,6,0,0.3834216,59.9890819939,95100,2,1,2,2,4,6,0,245,6,1,1.2500417,59.9890819939,60100,2,1,-2,2,0,6,0,246,6,1,0.566648,59.9890819939,161100,2,1,-2,2,0,6,0,247,6,1,0.650231,59.9890819939,2100,2,2,2,2,4,5,45,248,5,1,0.5834147,59.9890819939,129100,2,1,-2,-2,4,5,45,249,5,1,0.6348396,59.9890819939,4500,1,1,2,2,4,6,0,250,6,1,0.6500429,59.9890819939,13100,2,2,-2,2,0,5,45,251,5,1,0.8167493,59.9890819939,30100,2,2,-2,-2,4,5,45,252,5,1,0.6000492,59.9890819939,108500,1,2,-2,-2,4,5,45,253,5,1,0.5500239,59.9890819939,107100,2,2,2,2,4,6,0,254,6,1,0.5833676,59.9890819939,92500,1,1,-2,2,0,5,45,255,5,1,0.6667036,59.9890819939,27100,2,2,2,-2,0,6,0,256,6,1,0.6334799,59.9890819939,101100,2,2,-2,2,0,6,0,257,6,1,1.0000069,59.9890819939,23100,2,1,2,2,4,5,45,258,5,1,0.6667228,59.9890819939,71100,2,2,-2,-2,4,5,45,259,5,1,0.6001257,59.9890819939,121500,1,1,2,2,4,6,0,260,6,1,0.6167663,59.9890819939,38100,2,2,2,2,4,5,45,261,5,1,0.5500394,59.9890819939,11100,2,1,-2,-2,4,5,45,262,5,1,0.8518283,59.9890819939,161100,2,2,2,-2,0,6,0,263,6,1,1.0001128,59.9890819939,62100,2,2,2,-2,0,5,45,264,5,1,1.5501072,59.9890819939,22100,2,1,-2,2,0,5,45,265,5,1,0.8000504,59.9890819939,141500,1,2,-2,-2,4,6,0,266,6,1,0.4836904,59.9890819939,4100,2,2,2,-2,0,5,45,267,5,1,0.5000211,59.9890819939,98100,2,2,-2,2,0,5,45,268,5,1,0.6834034,59.9890819939,49100,2,2,2,-2,0,6,0,269,6,1,0.4852737,59.9890819939,28100,2,1,2,-2,0,6,0,270,6,1,0.6834106,59.9890819939,20100,2,1,2,-2,0,6,0,271,6,1,0.9500429,59.9890819939,103500,1,1,2,-2,0,5,45,272,5,1,0.5167923,59.9890819939,93100,2,2,-2,2,0,5,45,273,5,1,0.5346495,59.9890819939,94100,2,2,2,2,4,5,45,274,5,1,0.5500269,59.9890819939,131500,1,1,-2,2,0,6,0,275,6,1,0.7000502,59.9890819939,105100,2,1,-2,2,0,5,45,276,5,1,1.5001074,59.9890819939,127100,2,1,2,-2,0,5,45,277,5,1,0.6500245,59.9890819939,63500,1,2,2,-2,0,6,0,278,6,1,0.683389,59.9890819939,108100,2,2,-2,-2,4,6,0,279,6,1,0.8834375,59.9890819939,86100,2,1,-2,2,0,5,45,280,5,1,0.6500944,59.9890819939,3100,2,2,-2,-2,4,5,45,281,5,1,1.1667776,59.9890819939,87100,2,2,-2,2,0,6,0,282,6,1,0.6834477,59.9890819939,41100,2,2,2,2,4,6,0,283,6,1,0.7499621,59.9890819939,31100,2,1,-2,-2,4,6,0,284,6,1,0.7000222,59.9890819939,7100,2,2,2,-2,0,6,0,285,6,1,0.5833885,59.9890819939,29500,1,2,-2,-2,4,5,45,286,5,1,0.6167994,59.9890819939,68100,2,1,-2,2,0,6,0,287,6,1,0.5834611,59.9890819939,141500,1,1,2,2,4,6,0,288,6,1,0.5500231,59.9890819939,132500,1,1,2,2,4,5,45,289,5,1,0.6000322,59.9890819939,108100,2,1,2,2,4,6,0,290,5,0,0.8500331,59.9890819939,162100,2,2,-2,-2,4,5,45,291,5,1,0.6833796,59.9890819939,10100,2,2,-2,2,0,6,0,292,6,1,0.6334707,59.9890819939,31500,1,2,2,-2,0,6,0,293,6,1,0.7667378,59.9890819939,153100,2,1,2,-2,0,6,0,294,6,1,0.5834052,59.9890819939,22100,2,2,2,2,4,5,45,295,5,1,0.584577,59.9890819939,109100,2,1,-2,-2,4,6,0,296,6,1,0.4001204,59.9890819939,91100,2,1,-2,-2,4,5,45,297,5,1,0.6500348,59.9890819939,72100,2,1,-2,2,0,6,0,298,6,1,0.5834087,59.9890819939,141500,1,2,-2,2,0,6,0,299,6,1,0.4833982,59.9890819939,65100,2,1,-2,2,0,6,0,300,6,1,0.5501172,59.9890819939,131500,1,2,2,2,4,6,0,301,6,1,0.6666205,59.9890819939,28100,2,2,-2,-2,4,6,0,302,6,1,0.5501295,59.9890819939,122100,2,1,2,2,4,5,45,303,5,1,0.55002,59.9890819939,40100,2,2,-2,-2,4,5,45,304,5,1,0.7667014,59.9890819939,94100,2,1,-2,2,0,6,0,305,6,1,0.6334373,59.9890819939,116100,2,2,-2,2,0,6,0,306,6,1,0.416629,59.9890819939,68500,1,1,2,2,4,5,45,307,5,1,0.5670662,59.9890819939,104500,1,2,2,2,4,6,0,308,6,1,0.599972,59.9890819939,10100,2,1,2,2,4,5,45,309,5,1,0.4667527,59.9890819939,91100,2,2,2,-2,0,6,0,310,6,1,0.966793,59.9890819939,81100,2,2,-2,2,0,5,45,311,5,1,0.7501127,59.9890819939,158100,2,2,-2,-2,4,6,0,312,6,1,0.6500297,59.9890819939,144100,2,1,2,-2,0,5,45,313,5,1,0.8500448,59.9890819939,125100,2,2,-2,2,0,5,45,314,5,1,0.8333741,59.9890819939,152100,2,2,2,2,4,5,45,315,5,1,0.6333527,59.9890819939,131500,1,1,-2,-2,4,5,45,316,5,1,0.60013,59.9890819939,48100,2,2,-2,-2,4,5,45,317,5,1,0.6167949,59.9890819939,66100,2,2,-2,-2,4,5,45,318,5,1,0.6833776,59.9890819939,107100,2,1,-2,2,0,5,45,319,5,1,0.7167517,59.9890819939,101100,2,1,2,-2,0,6,0,320,6,1,0.6167381,59.9890819939,47100,2,2,2,-2,0,5,45,321,5,1,0.8167489,59.9890819939,104500,1,2,2,-2,0,5,45,322,5,1,0.8000257,59.9890819939,70100,2,1,-2,-2,4,5,45,323,5,1,0.5500656,59.9890819939,116100,2,1,2,2,4,5,45,324,5,1,0.6166428,59.9890819939,130500,1,1,2,2,4,5,45,325,5,1,0.5166444,59.9890819939,68500,1,1,2,-2,0,6,0,326,6,1,0.5834008,59.9890819939,87100,2,2,-2,-2,4,6,0,327,6,1,0.6858145,59.9890819939,68500,1,2,-2,-2,4,6,0,328,6,1,0.6000697,59.9890819939,153100,2,1,2,2,4,5,45,329,5,1,0.6167347,59.9890819939,17100,2,1,2,-2,0,5,45,330,5,1,0.983396,59.9890819939,91100,2,2,2,2,4,6,0,331,6,1,0.616697,59.9890819939,173500,1,1,2,2,4,5,45,332,5,1,0.6839373,59.9890819939,55100,2,2,2,-2,0,6,0,333,6,1,1.000106,59.9890819939,16100,2,2,2,2,4,6,0,334,6,1,0.5334063,59.9890819939,93100,2,2,-2,-2,4,5,45,335,5,1,0.6166991,59.9890819939,42100,2,2,-2,2,0,6,0,336,6,1,0.6167715,59.9890819939,36100,2,1,-2,-2,4,5,45,337,5,1,0.9334228,59.9890819939,132100,2,2,2,2,4,6,0,338,6,1,0.5667855,59.9890819939,117100,2,2,2,-2,0,6,0,339,6,1,0.7845627,59.9890819939,63100,2,1,2,2,4,5,45,340,5,1,0.5500354,59.9890819939,41500,1,2,-2,-2,4,6,0,341,6,1,0.7167767,59.9890819939,128500,1,2,-2,2,0,5,45,342,5,1,1.0167878,59.9890819939,136100,2,2,2,-2,0,5,45,343,5,1,0.7334158,59.9890819939,117500,1,1,-2,-2,4,5,45,344,5,1,0.550037,59.9890819939,126100,2,2,2,2,4,5,45,345,5,1,0.6500924,59.9890819939,172500,1,2,2,-2,0,5,45,346,5,1,1.4666971,59.9890819939,141100,2,2,2,2,4,6,0,347,6,1,1.0679626,59.9890819939,73100,2,1,2,-2,0,6,0,348,6,1,0.7177087,59.9890819939,111100,2,1,-2,2,0,6,0,349,6,1,0.9668702,59.9890819939,125500,1,2,2,-2,0,6,0,350,6,1,0.9167267,59.9890819939,56100,2,1,2,2,4,5,45,351,5,1,0.5833708,59.9890819939,87100,2,1,2,2,4,6,0,352,6,1,1.0844222,59.9890819939,4500,1,2,-2,2,0,5,45,353,5,1,0.8834045,59.9890819939,1100,2,1,2,-2,0,6,0,354,6,1,0.7182387,59.9890819939,5100,2,1,2,-2,0,6,0,355,6,1,0.6667726,59.9890819939,12500,1,1,-2,-2,4,5,45,356,5,1,0.6166251,59.9890819939,20100,2,2,-2,-2,4,5,45,357,5,1,0.8177504,59.9890819939,7100,2,1,-2,-2,4,5,45,358,5,1,0.5333725,59.9890819939,8100,2,2,-2,-2,4,5,45,359,5,1,0.6500847,59.9890819939,84100,2,2,-2,-2,4,5,45,360,5,1,0.500134,59.9890819939,57100,2,2,2,2,4,5,45,361,5,1,0.5667569,59.9890819939,140500,1,1,-2,2,0,6,0,362,6,1,0.616773,59.9890819939,63500,1,1,-2,2,0,5,45,363,5,1,0.4834096,59.9890819939,144100,2,2,-2,2,0,5,45,364,5,1,1.2833798,59.9890819939,126100,2,2,2,-2,0,6,0,365,6,1,0.7833949,59.9890819939,52100,2,1,2,-2,0,5,45,366,5,1,0.6667681,59.9890819939,80100,2,1,-2,-2,4,5,45,367,5,1,0.76678,59.9890819939,146100,2,2,2,-2,0,6,0,368,6,1,0.4834153,59.9890819939,31500,1,1,-2,-2,4,5,45,369,5,1,0.6666495,59.9890819939,108500,1,1,2,2,4,5,45,370,5,1,0.6499886,59.9890819939,36100,2,1,-2,2,0,5,45,371,6,0,0.4334291,59.9890819939,49100,2,1,-2,-2,4,5,45,372,5,1,0.7666914,59.9890819939,142100,2,2,-2,-2,4,5,45,373,5,1,0.5334339,59.9890819939,91100,2,1,-2,2,0,5,45,374,5,1,1.4166718,59.9890819939,48100,2,2,-2,2,0,5,45,375,5,1,0.7333666,59.9890819939,128500,1,2,-2,-2,4,6,0,376,6,1,1.0167193,59.9890819939,71100,2,2,-2,2,0,5,45,377,5,1,0.6333623,59.9890819939,121100,2,2,2,-2,0,6,0,378,6,1,0.9166361,59.9890819939,66100,2,1,2,2,4,6,0,379,6,1,0.8001734,59.9890819939,106100,2,1,2,2,4,5,45,380,5,1,1.1333491,59.9890819939,122100,2,2,-2,-2,4,6,0,381,6,1,0.71845,59.9890819939,132500,1,2,-2,-2,4,6,0,382,6,1,0.6500533,59.9890819939,105500,1,2,-2,-2,4,6,0,383,6,1,0.483356,59.9890819939,40100,2,2,-2,2,0,6,0,384,6,1,0.4834605,59.9890819939,86100,2,1,-2,-2,4,5,45,385,5,1,0.7334565,59.9890819939,104500,1,1,-2,2,0,5,45,386,5,1,1.1667332,59.9890819939,12500,1,1,-2,2,0,6,0,387,6,1,0.6167274,59.9890819939,40100,2,1,2,-2,0,6,0,388,6,1,1.9833577,59.9890819939,109100,2,2,2,2,4,6,0,389,6,1,0.6000166,59.9890819939,162100,2,1,2,-2,0,5,45,390,5,1,0.6333827,59.9890819939,69100,2,1,2,-2,0,6,0,391,6,1,0.5833651,59.9890819939,41100,2,1,-2,-2,4,6,0,392,6,1,0.6000187,59.9890819939,134100,2,2,-2,-2,4,6,0,393,6,1,0.5511475,59.9890819939,150100,2,2,-2,2,0,5,45,394,5,1,0.5175368,59.9890819939,33100,2,2,2,2,4,6,0,395,6,1,0.6685101,59.9890819939,23100,2,2,-2,2,0,6,0,396,6,1,1.2017091,59.9890819939,81100,2,1,2,2,4,5,45,397,5,1,0.583367,59.9890819939,25100,2,1,-2,2,0,6,0,398,6,1,0.6333934,59.9890819939,117500,1,2,2,2,4,5,45,399,5,1,0.416721,59.9890819939,57100,2,2,2,-2,0,5,45,400,5,1,0.9167578,59.9890819939,80100,2,2,2,-2,0,5,45,401,5,1,0.4333712,59.9890819939,56100,2,2,-2,-2,4,6,0,402,5,0,0.3680902,59.9890819939,16100,2,1,-2,2,0,5,45,403,5,1,0.86679,59.9890819939,41500,1,2,-2,2,0,5,45,404,5,1,1.0500294,59.9890819939,76100,2,1,2,-2,0,5,45,405,5,1,0.6167937,59.9890819939,127100,2,1,2,2,4,6,0,406,6,1,0.6333742,59.9890819939,100100,2,2,2,-2,0,6,0,407,6,1,1.1180553,59.9890819939,100100,2,1,-2,-2,4,6,0,408,6,1,2.4500969,59.9890819939,38100,2,1,-2,2,0,6,0,409,6,1,0.9333772,59.9890819939,42100,2,2,-2,-2,4,6,0,410,6,1,2.184208,59.9890819939,129100,2,2,2,2,4,5,45,411,5,1,0.8833997,59.9890819939,80100,2,1,-2,2,0,5,45,412,5,1,0.8666713,59.9890819939,21500,1,2,-2,-2,4,6,0,413,6,1,0.900054,59.9890819939,26500,1,1,2,-2,0,5,45,414,5,1,0.7167059,59.9890819939,30100,2,1,2,-2,0,5,45,415,5,1,0.6834108,59.9890819939,98100,2,2,-2,-2,4,6,0,416,6,1,1.5000906,59.9890819939,110100,2,1,2,-2,0,5,45,417,5,1,1.1999974,59.9890819939,37100,2,2,-2,2,0,6,0,418,6,1,0.6168236,59.9890819939,43100,2,1,-2,-2,4,5,45,419,5,1,1.0667355,59.9890819939,60100,2,2,2,2,4,6,0,420,6,1,1.0500583,59.9890819939,47100,2,2,2,2,4,6,0,421,6,1,1.016779,59.9890819939,73100,2,1,2,2,4,5,45,422,5,1,0.6167965,59.9890819939,93100,2,1,2,2,4,6,0,423,6,1,0.9336621,59.9890819939,161100,2,2,2,2,4,6,0,424,6,1,0.666696,59.9890819939,65100,2,2,2,-2,0,6,0,425,6,1,1.2834075,59.9890819939,8100,2,1,2,2,4,6,0,426,6,1,1.0167533,59.9890819939,18500,1,1,2,-2,0,5,45,427,5,1,0.7334086,59.9890819939,68100,2,1,-2,-2,4,5,45,428,5,1,0.8849806,59.9890819939,83100,2,2,2,-2,0,6,0,429,6,1,0.635369,59.9890819939,127100,2,2,-2,2,0,5,45,430,5,1,0.6834443,59.9890819939,115100,2,2,2,2,4,6,0,431,6,1,1.250104,59.9890819939,134100,2,1,2,2,4,6,0,432,6,1,0.650048,59.9890819939,143100,2,2,2,2,4,6,0,433,6,1,0.4999934,59.9890819939,136100,2,1,-2,-2,4,6,0,434,6,1,0.4833692,59.9890819939,1100,2,2,-2,-2,4,6,0,435,6,1,0.4167,59.9890819939,33500,1,1,2,-2,0,5,45,436,6,0,0.5167299,59.9890819939,122100,2,1,2,-2,0,6,0,437,6,1,0.7001163,59.9890819939,120100,2,1,2,2,4,5,45,438,5,1,0.6832956,59.9890819939,116100,2,2,-2,-2,4,6,0,439,6,1,0.583375,59.9890819939,86100,2,2,2,2,4,6,0,440,6,1,0.6333741,59.9890819939,22100,2,1,-2,-2,4,5,45,441,5,1,0.5501368,59.9890819939,142100,2,1,2,2,4,6,0,442,6,1,1.5165927,59.9890819939,173500,1,2,-2,-2,4,5,45,443,5,1,0.7166924,59.9890819939,117500,1,2,2,-2,0,6,0,444,6,1,0.7167588,59.9890819939,117100,2,1,-2,2,0,6,0,445,6,1,1.2333695,59.9890819939,101500,1,1,2,2,4,5,45,446,5,1,0.7667921,59.9890819939,49100,2,1,-2,2,0,6,0,447,6,1,0.7834309,59.9890819939,55100,2,1,-2,2,0,6,0,448,6,1,1.0834102,59.9890819939,124100,2,1,-2,-2,4,6,0,449,6,1,0.5666511,59.9890819939,5100,2,1,2,2,4,5,45,450,5,1,0.6334948,59.9890819939,141500,1,1,2,-2,0,5,45,451,5,1,0.5666556,59.9890819939,63100,2,2,-2,-2,4,5,45,452,5,1,0.5834097,59.9890819939,123500,1,2,-2,-2,4,5,45,453,5,1,0.5168242,59.9890819939,101100,2,2,-2,-2,4,6,0,454,6,1,0.9333132,59.9890819939,105500,1,1,2,2,4,6,0,455,6,1,0.5334694,59.9890819939,141100,2,1,-2,-2,4,5,45,456,5,1,0.5667309,59.9890819939,100100,2,2,2,2,4,5,45,457,5,1,0.6167087,59.9890819939,152100,2,2,2,-2,0,5,45,458,5,1,0.7334088,59.9890819939,98100,2,1,2,2,4,5,45,459,5,1,0.7333525,59.9890819939,29500,1,1,2,-2,0,6,0,460,5,0,0.6166426,59.9890819939,96100,2,1,-2,2,0,6,0,461,5,0,0.7166995,59.9890819939,3100,2,1,2,-2,0,5,45,462,5,1,0.6000485,59.9890819939,152100,2,1,-2,2,0,6,0,463,6,1,0.7667771,59.9890819939,95100,2,2,-2,-2,4,6,0,464,6,1,0.667885,59.9890819939,33500,1,2,-2,-2,4,6,0,465,6,1,0.7167762,59.9890819939,104500,1,1,-2,-2,4,5,45,466,5,1,0.5667847,59.9890819939,138500,1,2,-2,-2,4,5,45,467,5,1,0.6334101,59.9890819939,84100,2,2,-2,2,0,6,0,468,6,1,0.3834383,59.9890819939,132500,1,1,2,-2,0,5,45,469,5,1,0.5333688,59.9890819939,172500,1,1,-2,-2,4,5,45,470,5,1,0.6833589,59.9890819939,124100,2,1,-2,2,0,5,45,471,6,0,0.4833984,59.9890819939,73100,2,2,-2,-2,4,5,45,472,5,1,0.7347331,59.9890819939,48100,2,1,2,2,4,5,45,473,5,1,0.6501122,59.9890819939,101500,1,2,-2,2,0,5,45,474,5,1,0.7833248,59.9890819939,96100,2,2,2,-2,0,5,45,475,5,1,0.6001316,59.9890819939,5100,2,2,-2,2,0,5,45,476,5,1,0.633346,59.9890819939,41500,1,1,2,2,4,5,45,477,5,1,0.5166965,59.9890819939,144100,2,1,2,2,4,5,45,478,5,1,0.5167403,59.9890819939,45100,2,1,2,-2,0,5,45,479,5,1,0.4833711,59.9890819939,110100,2,2,-2,-2,4,5,45,480,5,1,0.5000692,59.9890819939,68100,2,2,2,-2,0,5,45,481,5,1,0.5001262,59.9890819939,124100,2,2,2,2,4,6,0,482,6,1,0.6333639,59.9890819939,35100,2,2,-2,-2,4,5,45,483,5,1,0.5167391,59.9890819939,49100,2,2,2,2,4,6,0,484,6,1,0.8006537,59.9890819939,130500,1,1,2,-2,0,6,0,485,6,1,0.6667984,59.9890819939,27100,2,1,-2,2,0,5,45,486,5,1,1.4166657,59.9890819939,172500,1,2,2,2,4,5,45,487,5,1,0.5666404,59.9890819939,52100,2,2,-2,2,0,6,0,488,6,1,0.7166793,59.9890819939,17100,2,2,-2,-2,4,6,0,489,6,1,1.2334862,59.9890819939,4100,2,1,-2,-2,4,5,45,490,5,1,0.6500532,59.9890819939,1100,2,1,2,2,4,5,45,491,5,1,0.9026363,59.9890819939,25100,2,2,2,2,4,6,0,492,6,1,0.6000463,59.9890819939,58100,2,1,2,2,4,5,45,493,5,1,0.9334399,59.9890819939,150100,2,1,2,2,4,5,45,494,5,1,0.6347773,59.9890819939,9100,2,1,-2,2,0,5,45,495,5,1,0.5999982,59.9890819939,106100,2,2,-2,2,0,5,45,496,5,1,0.600054,59.9890819939,40100,2,1,2,2,4,6,0,497,6,1,0.7833929,59.9890819939,138100,2,2,-2,2,0,6,0,498,6,1,0.8999676,59.9890819939,77100,2,1,-2,-2,4,5,45,499,5,1,0.6167783,59.9890819939,108100,2,2,-2,2,0,6,0,500,6,1,1.4333539,59.9890819939,3100,2,1,2,2,4,6,0,501,6,1,0.7833806,59.9890819939,18500,1,2,-2,2,0,5,45,502,5,1,0.616704,59.9890819939,122100,2,2,-2,2,0,6,0,503,6,1,0.9166728,59.9890819939,69100,2,2,-2,2,0,5,45,504,5,1,0.7167411,59.9890819939,120100,2,1,2,-2,0,6,0,505,6,1,1.9500376,59.9890819939,25100,2,2,2,-2,0,6,0,506,6,1,2.002545,59.9890819939,153100,2,2,-2,2,0,6,0,507,6,1,0.5689384,59.9890819939,157100,2,2,2,-2,0,5,45,508,5,1,0.6001276,59.9890819939,26100,2,2,-2,-2,4,6,0,509,6,1,0.6167619,59.9890819939,41100,2,2,2,-2,0,5,45,510,5,1,0.5179188,59.9890819939,115100,2,2,2,-2,0,6,0,511,6,1,0.666782,59.9890819939,158100,2,1,2,-2,0,5,45,512,5,1,0.4667211,59.9890819939,77100,2,2,2,2,4,6,0,513,6,1,0.683427,59.9890819939,33100,2,1,-2,2,0,5,45,514,5,1,0.7500246,59.9890819939,157100,2,1,-2,-2,4,5,45,515,5,1,0.6501201,59.9890819939,115100,2,1,-2,2,0,5,45,516,5,1,1.3847002,59.9890819939,57100,2,1,-2,2,0,5,45,517,5,1,0.583354,59.9890819939,103500,1,2,-2,-2,4,6,0,518,6,1,0.7001231,59.9890819939,72100,2,2,2,-2,0,5,45,519,5,1,0.9167848,59.9890819939,134100,2,2,-2,2,0,5,45,520,5,1,0.9833803,59.9890819939,92500,1,2,2,2,4,6,0,521,6,1,1.0500512,59.9890819939,62100,2,1,-2,2,0,6,0,522,6,1,0.7000264,59.9890819939,2100,2,1,-2,2,0,6,0,523,6,1,0.700039,59.9890819939,127100,2,2,-2,-2,4,5,45,524,5,1,0.6834444,59.9890819939,21500,1,1,2,2,4,5,45,525,5,1,0.7167415,59.9890819939,111100,2,1,-2,-2,4,6,0,526,6,1,1.3167826,59.9890819939,23100,2,2,-2,-2,4,5,45,527,5,1,0.6684258,59.9890819939,12500,1,2,2,-2,0,6,0,528,6,1,2.4833333,59.9890819939,75100,2,1,-2,-2,4,5,45,529,5,1,0.6167079,59.9890819939,73100,2,2,-2,2,0,6,0,530,6,1,0.4834601,59.9890819939,18100,2,2,2,2,4,5,45,531,5,1,0.5834233,59.9890819939,71100,2,1,2,2,4,5,45,532,5,1,0.733388,59.9890819939,108100,2,1,2,-2,0,6,0,533,6,1,0.65013,59.9890819939,105100,2,1,-2,-2,4,6,0,534,6,1,0.6167006,59.9890819939,16100,2,1,-2,-2,4,6,0,535,6,1,1.1166897,59.9890819939,62100,2,2,2,2,4,6,0,536,6,1,0.5667019,59.9890819939,72100,2,1,-2,-2,4,5,45,537,5,1,0.4835799,59.9890819939,18500,1,1,2,2,4,6,0,538,6,1,0.8167466,59.9890819939,55100,2,1,-2,-2,4,6,0,539,6,1,0.53346,59.9890819939,129100,2,1,-2,2,0,6,0,540,6,1,0.6358927,59.9890819939,80100,2,2,2,2,4,5,45,541,5,1,0.6000205,59.9890819939,121500,1,1,2,-2,0,6,0,542,6,1,0.733362,59.9890819939,136100,2,1,-2,2,0,6,0,543,6,1,0.6166404,59.9890819939,33100,2,2,2,-2,0,6,0,544,5,0,0.7666361,59.9890819939,98100,2,1,2,-2,0,6,0,545,6,1,0.633323,59.9890819939,45100,2,2,-2,-2,4,6,0,546,6,1,0.5166448,59.9890819939,126100,2,1,-2,2,0,6,0,547,6,1,0.7000823,59.9890819939,48100,2,1,2,-2,0,5,45,548,5,1,0.7500687,59.9890819939,41100,2,1,-2,2,0,5,45,549,5,1,1.0001197,59.9890819939,4500,1,1,2,-2,0,5,45,550,5,1,1.4834348,59.9890819939,143100,2,1,-2,-2,4,5,45,551,5,1,0.666695,59.9890819939,32100,2,2,-2,-2,4,6,0,552,6,1,0.9834005,59.9890819939,123500,1,2,-2,2,0,6,0,553,6,1,1.4666952,59.9890819939,138100,2,2,-2,-2,4,5,45,554,5,1,0.7000355,59.9890819939,29500,1,2,-2,2,0,5,45,555,5,1,0.8167798,59.9890819939,1100,2,2,-2,2,0,5,45,556,5,1,0.5166487,59.9890819939,21500,1,1,2,-2,0,5,45,557,5,1,0.6167539,59.9890819939,146100,2,1,-2,2,0,5,45,558,5,1,0.8000819,59.9890819939,69500,1,1,2,2,4,5,45,559,5,1,1.1166857,59.9890819939,141100,2,2,2,-2,0,5,45,560,5,1,0.550133,59.9890819939,63100,2,2,-2,2,0,6,0,561,6,1,1.0334461,59.9890819939,26500,1,2,-2,-2,4,6,0,562,6,1,1.2333793,59.9890819939,131500,1,2,2,-2,0,5,45,563,5,1,0.7167149,59.9890819939,173500,1,2,-2,2,0,6,0,564,6,1,0.6008258,59.9890819939,107100,2,2,2,-2,0,5,45,565,5,1,0.5000303,59.9890819939,68100,2,2,2,2,4,5,45,566,5,1,0.6667154,59.9890819939,129100,2,2,2,-2,0,6,0,567,6,1,0.6167058,59.9890819940,128500,1,2,2,2,4,6,0,0,6,1,0.8667777,60.0012120440,115100,2,1,-2,2,0,6,0,1,6,1,0.4500071,60.0012120440,52100,2,2,2,2,4,5,45,2,5,1,0.5166367,60.0012120440,91100,2,2,2,2,4,6,0,3,6,1,0.4333639,60.0012120440,63100,2,1,2,-2,0,6,0,4,6,1,0.6001247,60.0012120440,143100,2,2,2,-2,0,6,0,5,6,1,0.5000267,60.0012120440,130500,1,1,2,2,4,6,0,6,6,1,0.484853,60.0012120440,103500,1,1,2,2,4,6,0,7,6,1,0.4007039,60.0012120440,150100,2,1,-2,2,0,5,45,8,5,1,0.5167017,60.0012120440,105100,2,1,2,2,4,5,45,9,5,1,0.5333444,60.0012120440,101500,1,1,-2,2,0,5,45,10,5,1,0.5848369,60.0012120440,153100,2,1,-2,-2,4,5,45,11,5,1,0.4848924,60.0012120440,106100,2,1,-2,2,0,6,0,12,6,1,0.5500289,60.0012120440,92500,1,2,2,-2,0,6,0,13,5,0,0.5833556,60.0012120440,157100,2,1,-2,-2,4,6,0,14,6,1,0.5666957,60.0012120440,116100,2,1,2,-2,0,5,45,15,5,1,0.7001256,60.0012120440,71100,2,2,-2,2,0,5,45,16,5,1,0.516813,60.0012120440,18100,2,1,2,2,4,5,45,17,5,1,0.6000341,60.0012120440,81100,2,1,-2,-2,4,6,0,18,6,1,0.4667929,60.0012120440,125100,2,1,2,-2,0,6,0,19,6,1,0.7667459,60.0012120440,132100,2,1,-2,-2,4,6,0,20,6,1,0.4500512,60.0012120440,52100,2,2,2,-2,0,5,45,21,5,1,0.6167731,60.0012120440,22500,1,2,2,-2,0,5,45,22,5,1,0.5666508,60.0012120440,116100,2,2,-2,2,0,6,0,23,6,1,0.3834132,60.0012120440,42100,2,2,2,-2,0,6,0,24,6,1,0.4834108,60.0012120440,2100,2,1,2,2,4,5,45,25,5,1,0.400706,60.0012120440,77100,2,2,2,-2,0,6,0,26,6,1,0.6000887,60.0012120440,105500,1,1,-2,2,0,6,0,27,6,1,0.8184772,60.0012120440,47100,2,2,2,-2,0,6,0,28,6,1,0.633387,60.0012120440,28100,2,1,-2,-2,4,6,0,29,6,1,0.4666431,60.0012120440,38100,2,2,2,2,4,5,45,30,5,1,0.6167386,60.0012120440,121500,1,2,2,-2,0,6,0,31,6,1,0.4833919,60.0012120440,9100,2,1,2,-2,0,6,0,32,6,1,0.4667787,60.0012120440,111100,2,1,2,-2,0,5,45,33,5,1,0.5001104,60.0012120440,42100,2,1,-2,2,0,5,45,34,5,1,0.5167333,60.0012120440,121100,2,1,2,-2,0,5,45,35,5,1,0.4999893,60.0012120440,66100,2,2,2,2,4,5,45,36,5,1,0.4503139,60.0012120440,68100,2,1,2,-2,0,5,45,37,5,1,0.4514925,60.0012120440,18500,1,1,-2,-2,4,6,0,38,6,1,0.4500367,60.0012120440,33500,1,2,2,2,4,6,0,39,6,1,0.4334433,60.0012120440,20100,2,2,2,-2,0,6,0,40,6,1,0.5833774,60.0012120440,95100,2,1,-2,2,0,6,0,41,6,1,0.3833483,60.0012120440,132100,2,2,2,-2,0,6,0,42,6,1,0.4500403,60.0012120440,138100,2,2,2,2,4,5,45,43,5,1,0.4833787,60.0012120440,16100,2,2,2,2,4,5,45,44,5,1,0.5001274,60.0012120440,121100,2,2,-2,2,0,5,45,45,5,1,0.5834382,60.0012120440,77100,2,1,-2,-2,4,5,45,46,5,1,0.4501271,60.0012120440,47100,2,1,-2,2,0,5,45,47,5,1,0.4667012,60.0012120440,94100,2,2,-2,-2,4,6,0,48,6,1,0.4667146,60.0012120440,18100,2,2,-2,2,0,6,0,49,6,1,0.3501303,60.0012120440,132100,2,1,-2,2,0,5,45,50,5,1,0.4517565,60.0012120440,29500,1,1,2,2,4,5,45,51,5,1,0.550047,60.0012120440,117100,2,1,-2,2,0,6,0,52,6,1,0.4848378,60.0012120440,150100,2,1,-2,-2,4,5,45,53,5,1,0.5334698,60.0012120440,72100,2,1,-2,-2,4,5,45,54,5,1,0.5499807,60.0012120440,30100,2,2,-2,-2,4,5,45,55,5,1,0.4672427,60.0012120440,10100,2,2,2,-2,0,5,45,56,5,1,0.4668152,60.0012120440,172500,1,2,2,-2,0,6,0,57,6,1,0.433409,60.0012120440,94100,2,1,2,2,4,5,45,58,6,0,0.4334073,60.0012120440,141100,2,2,-2,2,0,5,45,59,5,1,0.5167611,60.0012120440,33500,1,1,-2,-2,4,5,45,60,5,1,0.4167607,60.0012120440,173500,1,2,2,-2,0,6,0,61,6,1,0.5351878,60.0012120440,1100,2,1,-2,2,0,5,45,62,5,1,0.5166609,60.0012120440,38100,2,1,-2,-2,4,6,0,63,6,1,0.466722,60.0012120440,157100,2,2,2,-2,0,6,0,64,6,1,0.5500148,60.0012120440,143500,1,2,-2,-2,4,6,0,65,6,1,0.6166424,60.0012120440,104500,1,2,2,-2,0,5,45,66,5,1,0.4833813,60.0012120440,31100,2,1,-2,-2,4,5,45,67,5,1,0.4000399,60.0012120440,93100,2,2,2,-2,0,5,45,68,5,1,0.4166519,60.0012120440,128500,1,1,-2,2,0,6,0,69,6,1,0.7000826,60.0012120440,117100,2,2,2,-2,0,5,45,70,5,1,0.4333855,60.0012120440,28100,2,1,-2,2,0,6,0,71,6,1,0.4666696,60.0012120440,103500,1,2,-2,-2,4,5,45,72,5,1,0.4000485,60.0012120440,105100,2,1,2,-2,0,5,45,73,5,1,0.450037,60.0012120440,108500,1,1,2,2,4,5,45,74,5,1,0.5167583,60.0012120440,21500,1,2,-2,2,0,5,45,75,5,1,0.400027,60.0012120440,61100,2,1,-2,2,0,6,0,76,6,1,0.4500072,60.0012120440,33500,1,1,-2,2,0,6,0,77,6,1,0.4000492,60.0012120440,108100,2,1,2,2,4,5,45,78,5,1,0.6333619,60.0012120440,138100,2,1,-2,2,0,6,0,79,6,1,0.6834519,60.0012120440,86100,2,1,-2,-2,4,5,45,80,5,1,0.6833522,60.0012120440,130500,1,2,-2,-2,4,6,0,81,5,0,0.4167815,60.0012120440,42100,2,2,2,2,4,5,45,82,5,1,0.4667856,60.0012120440,35100,2,2,2,2,4,6,0,83,6,1,0.4668271,60.0012120440,108500,1,2,-2,-2,4,5,45,84,5,1,0.6333753,60.0012120440,60100,2,2,-2,2,0,5,45,85,5,1,0.5834106,60.0012120440,29100,2,2,2,2,4,5,45,86,6,0,0.5518075,60.0012120440,121100,2,2,-2,-2,4,6,0,87,6,1,0.6175741,60.0012120440,87100,2,1,2,-2,0,5,45,88,5,1,0.6334972,60.0012120440,79100,2,1,2,-2,0,6,0,89,6,1,0.4018378,60.0012120440,33100,2,1,2,-2,0,6,0,90,6,1,0.4333273,60.0012120440,31100,2,1,-2,2,0,6,0,91,6,1,0.4334303,60.0012120440,100100,2,1,-2,2,0,5,45,92,5,1,0.4000404,60.0012120440,71100,2,1,2,2,4,5,45,93,5,1,0.6667538,60.0012120440,95100,2,2,2,2,4,5,45,94,5,1,0.3833915,60.0012120440,3100,2,2,2,2,4,6,0,95,6,1,0.5002314,60.0012120440,128500,1,2,2,-2,0,6,0,96,6,1,0.5833999,60.0012120440,101500,1,1,-2,-2,4,5,45,97,5,1,0.4849871,60.0012120440,13100,2,1,2,2,4,5,45,98,5,1,0.4333745,60.0012120440,104500,1,1,-2,-2,4,5,45,99,5,1,0.4834407,60.0012120440,91100,2,1,-2,2,0,5,45,100,5,1,0.433457,60.0012120440,138500,1,2,-2,-2,4,5,45,101,5,1,0.4001301,60.0012120440,22500,1,1,-2,2,0,5,45,102,5,1,0.4501016,60.0012120440,22100,2,1,-2,2,0,5,45,103,5,1,0.4501418,60.0012120440,141500,1,1,-2,-2,4,5,45,104,5,1,0.4500373,60.0012120440,70100,2,2,2,-2,0,5,45,105,5,1,0.4499925,60.0012120440,106100,2,1,-2,-2,4,6,0,106,6,1,0.4850993,60.0012120440,4500,1,2,-2,2,0,6,0,107,6,1,0.3834814,60.0012120440,21500,1,1,2,2,4,5,45,108,5,1,0.4166156,60.0012120440,49100,2,1,2,2,4,6,0,109,6,1,0.6000207,60.0012120440,56100,2,1,2,2,4,6,0,110,6,1,0.4666186,60.0012120440,18100,2,1,2,-2,0,6,0,111,5,0,0.4166356,60.0012120440,95100,2,2,2,-2,0,6,0,112,5,0,0.4334435,60.0012120440,7100,2,1,-2,2,0,5,45,113,5,1,0.6167588,60.0012120440,28100,2,2,2,2,4,6,0,114,6,1,0.5501279,60.0012120440,75100,2,2,-2,-2,4,5,45,115,5,1,0.4500307,60.0012120440,123500,1,2,-2,2,0,5,45,116,5,1,0.5167897,60.0012120440,26100,2,1,-2,2,0,5,45,117,5,1,0.5000407,60.0012120440,107100,2,2,2,-2,0,5,45,118,5,1,0.5667179,60.0012120440,132100,2,2,2,2,4,6,0,119,6,1,0.3999745,60.0012120440,17100,2,2,2,-2,0,6,0,120,6,1,0.6180295,60.0012120440,76100,2,2,2,-2,0,5,45,121,5,1,0.4500374,60.0012120440,29500,1,2,-2,2,0,6,0,122,6,1,0.6334054,60.0012120440,25100,2,1,-2,2,0,6,0,123,6,1,0.4001425,60.0012120440,122100,2,1,-2,2,0,6,0,124,6,1,0.4166583,60.0012120440,30100,2,1,2,-2,0,6,0,125,5,0,0.3171488,60.0012120440,9100,2,2,-2,2,0,6,0,126,6,1,0.5333309,60.00121204