ID,trials.thisN,trials.thisIndex,cue_image_id,Face_Set_Code,Face_Type_Code,cue_position_x,cue_position_y,target_position_x,target_position_y,conguruence,corAns,orientation,rectangle_color,Experiment_Trials_button.corr,Experiment_Trials_button.rt,frameRate
2,0,181,6200,2,2,8.5,0,-8.5,0,0,6,45,1,1,0.5167945,60.00456035
2,1,467,3155,1,1,-8.5,0,8.5,0,0,5,0,2,1,0.4667121,60.00456035
2,2,300,10700,2,1,-8.5,0,-8.5,0,1,5,0,1,1,0.4000231,60.00456035
2,3,340,12100,2,1,8.5,0,8.5,0,1,5,0,2,1,0.4500423,60.00456035
2,4,556,14355,1,1,8.5,0,8.5,0,1,6,45,4,1,0.4166874,60.00456035
2,5,335,11700,2,1,-8.5,0,8.5,0,0,6,45,3,1,0.4333873,60.00456035
2,6,495,10155,1,1,-8.5,0,8.5,0,0,6,45,2,1,0.3499756,60.00456035
2,7,528,12855,1,1,-8.5,0,-8.5,0,1,5,0,1,1,0.3834101,60.00456035
2,8,118,3800,2,2,8.5,0,8.5,0,1,5,0,1,1,0.3834996,60.00456035
2,9,343,12100,2,1,8.5,0,-8.5,0,0,6,45,2,1,0.4521215,60.00456035
2,10,0,100,2,1,-8.5,0,-8.5,0,1,6,45,3,1,0.4834471,60.00456035
2,11,227,7600,2,1,-8.5,0,8.5,0,0,5,0,1,1,0.400119,60.00456035
2,12,84,2900,2,1,-8.5,0,-8.5,0,1,6,45,4,1,0.4833681,60.00456035
2,13,249,8400,2,2,8.5,0,-8.5,0,0,6,45,1,1,0.4166894,60.00456035
2,14,465,3155,1,2,8.5,0,-8.5,0,0,6,45,3,1,0.416748,60.00456035
2,15,274,9500,2,2,8.5,0,8.5,0,1,6,45,3,1,0.3012616,60.00456035
2,16,147,4800,2,1,-8.5,0,8.5,0,0,5,0,3,0,0.3000285,60.00456035
2,17,279,9600,2,1,-8.5,0,8.5,0,0,6,45,4,1,0.4167035,60.00456035
2,18,92,3100,2,1,-8.5,0,-8.5,0,1,6,45,4,1,0.4833739,60.00456035
2,19,488,9255,1,1,-8.5,0,-8.5,0,1,6,45,1,0,0.4166962,60.00456035
2,20,109,3600,2,2,8.5,0,-8.5,0,0,6,45,1,1,0.5333223,60.00456035
2,21,174,6000,2,2,-8.5,0,-8.5,0,1,6,45,1,1,0.4001265,60.00456035
2,22,544,13855,1,1,8.5,0,8.5,0,1,5,0,2,1,0.4666671,60.00456035
2,23,7,200,2,1,8.5,0,-8.5,0,0,6,45,2,1,0.4834187,60.00456035
2,24,122,4000,2,2,8.5,0,8.5,0,1,5,0,2,1,0.4167855,60.00456035
2,25,303,10700,2,1,-8.5,0,8.5,0,0,5,0,3,1,0.5167287,60.00456035
2,26,537,13155,1,2,8.5,0,-8.5,0,0,5,0,4,1,0.3667935,60.00456035
2,27,548,14055,1,1,-8.5,0,-8.5,0,1,5,0,1,1,0.3833851,60.00456035
2,28,152,5200,2,1,-8.5,0,-8.5,0,1,5,0,2,1,0.3334479,60.00456035
2,29,546,13855,1,2,-8.5,0,-8.5,0,1,6,45,4,0,0.3334128,60.00456035
2,30,44,1600,2,1,-8.5,0,-8.5,0,1,6,45,3,1,0.6000168,60.00456035
2,31,229,7700,2,2,8.5,0,-8.5,0,0,6,45,2,1,0.4833618,60.00456035
2,32,9,300,2,2,8.5,0,-8.5,0,0,5,0,2,1,0.4001201,60.00456035
2,33,78,2700,2,2,-8.5,0,-8.5,0,1,6,45,2,1,0.5185277,60.00456035
2,34,425,15800,2,2,-8.5,0,8.5,0,0,5,0,2,1,0.4347731,60.00456035
2,35,364,12900,2,1,8.5,0,8.5,0,1,5,0,4,1,0.4000413,60.00456035
2,36,24,800,2,1,-8.5,0,-8.5,0,1,5,0,4,1,0.4015759,60.00456035
2,37,39,1100,2,1,-8.5,0,8.5,0,0,6,45,4,1,0.4500487,60.00456035
2,38,178,6100,2,2,8.5,0,8.5,0,1,5,0,1,1,0.4167195,60.00456035
2,39,496,10355,1,1,8.5,0,8.5,0,1,5,0,3,1,0.4333404,60.00456035
2,40,166,5700,2,2,8.5,0,8.5,0,1,6,45,4,1,0.4501331,60.00456035
2,41,70,2500,2,2,8.5,0,8.5,0,1,5,0,2,1,0.4667172,60.00456035
2,42,338,12000,2,2,8.5,0,8.5,0,1,6,45,2,1,0.48344,60.00456035
2,43,454,2255,1,2,8.5,0,8.5,0,1,6,45,3,1,0.5333627,60.00456035
2,44,436,455,1,1,8.5,0,8.5,0,1,6,45,2,1,0.4013478,60.00456035
2,45,499,10355,1,1,8.5,0,-8.5,0,0,5,0,1,1,0.3667202,60.00456035
2,46,140,4700,2,1,-8.5,0,-8.5,0,1,6,45,4,0,0.333356,60.00456035
2,47,538,13155,1,2,8.5,0,8.5,0,1,5,0,4,1,0.483407,60.00456035
2,48,143,4700,2,1,-8.5,0,8.5,0,0,6,45,3,1,0.3834681,60.00456035
2,49,320,11300,2,1,-8.5,0,-8.5,0,1,5,0,4,1,0.4834395,60.00456035
2,50,206,7000,2,2,8.5,0,8.5,0,1,6,45,1,1,0.5167529,60.00456035
2,51,212,7200,2,1,-8.5,0,-8.5,0,1,5,0,3,1,0.433381,60.00456035
2,52,295,10500,2,1,8.5,0,-8.5,0,0,5,0,2,1,0.4333727,60.00456035
2,53,224,7600,2,1,-8.5,0,-8.5,0,1,5,0,3,1,0.3667317,60.00456035
2,54,287,10000,2,1,-8.5,0,8.5,0,0,6,45,2,1,0.5666471,60.00456035
2,55,81,2800,2,2,8.5,0,-8.5,0,0,5,0,1,1,0.4166338,60.00456035
2,56,83,2800,2,1,-8.5,0,8.5,0,0,5,0,4,1,0.5167212,60.00456035
2,57,172,6000,2,1,8.5,0,8.5,0,1,6,45,1,1,0.450131,60.00456035
2,58,282,9800,2,2,-8.5,0,-8.5,0,1,6,45,4,1,0.583322,60.00456035
2,59,36,1100,2,1,-8.5,0,-8.5,0,1,5,0,1,1,0.516796,60.00456035
2,60,352,12500,2,1,8.5,0,8.5,0,1,5,0,3,1,0.3833976,60.00456035
2,61,165,5700,2,2,8.5,0,-8.5,0,0,6,45,1,1,0.5833566,60.00456035
2,62,361,12700,2,2,8.5,0,-8.5,0,0,5,0,1,1,0.650063,60.00456035
2,63,351,12400,2,1,-8.5,0,8.5,0,0,6,45,3,1,0.4000176,60.00456035
2,64,280,9800,2,1,8.5,0,8.5,0,1,5,0,2,1,0.4333745,60.00456035
2,65,399,14300,2,1,-8.5,0,8.5,0,0,5,0,2,1,0.4001064,60.00456035
2,66,446,1855,1,2,8.5,0,8.5,0,1,6,45,4,1,0.3833557,60.00456035
2,67,566,17355,1,2,8.5,0,8.5,0,1,5,0,2,1,0.4501007,60.00456035
2,68,1,100,2,2,8.5,0,-8.5,0,0,6,45,1,1,0.4166139,60.00456035
2,69,452,2255,1,1,-8.5,0,-8.5,0,1,6,45,4,1,0.6685194,60.00456035
2,70,242,8100,2,2,8.5,0,8.5,0,1,5,0,3,1,0.3517099,60.00456035
2,71,476,6355,1,1,-8.5,0,-8.5,0,1,6,45,3,0,0.3167895,60.00456035
2,72,271,9400,2,1,8.5,0,-8.5,0,0,6,45,2,1,0.6343647,60.00456035
2,73,132,4300,2,1,-8.5,0,-8.5,0,1,5,0,3,1,0.450018,60.00456035
2,74,55,1800,2,1,8.5,0,-8.5,0,0,5,0,3,1,0.4333847,60.00456035
2,75,149,4900,2,2,-8.5,0,8.5,0,0,5,0,3,1,0.4000318,60.00456035
2,76,259,8700,2,1,8.5,0,-8.5,0,0,5,0,4,1,0.43337,60.00456035
2,77,225,7600,2,2,8.5,0,-8.5,0,0,6,45,1,1,0.4501011,60.00456035
2,78,520,12355,1,1,8.5,0,8.5,0,1,5,0,1,1,0.7000017,60.00456035
2,79,483,6855,1,1,-8.5,0,8.5,0,0,5,0,4,1,0.5334169,60.00456035
2,80,248,8400,2,1,-8.5,0,-8.5,0,1,5,0,2,1,0.3667663,60.00456035
2,81,435,16200,2,1,-8.5,0,8.5,0,0,6,45,3,1,0.4667538,60.00456035
2,82,344,12200,2,1,-8.5,0,-8.5,0,1,6,45,3,1,0.434208,60.00456035
2,83,173,6000,2,2,-8.5,0,8.5,0,0,5,0,4,1,0.4166369,60.00456035
2,84,90,3000,2,2,-8.5,0,-8.5,0,1,6,45,1,1,0.6001361,60.00456035
2,85,414,15200,2,2,-8.5,0,-8.5,0,1,6,45,4,1,0.3999934,60.00456035
2,86,407,14600,2,1,-8.5,0,8.5,0,0,6,45,4,1,0.5000162,60.00456035
2,87,252,8600,2,1,-8.5,0,-8.5,0,1,5,0,1,1,0.4167791,60.00456035
2,88,192,6600,2,1,-8.5,0,-8.5,0,1,5,0,3,1,0.4182296,60.00456035
2,89,58,2000,2,2,8.5,0,8.5,0,1,6,45,4,1,0.6000181,60.00456035
2,90,518,12155,1,2,8.5,0,8.5,0,1,5,0,4,0,0.3333897,60.00456035
2,91,453,2255,1,2,8.5,0,-8.5,0,0,6,45,1,1,0.68429,60.00456035
2,92,316,11100,2,1,8.5,0,8.5,0,1,6,45,3,1,0.566782,60.00456035
2,93,161,5600,2,2,-8.5,0,8.5,0,0,5,0,1,1,0.4168261,60.00456035
2,94,357,12600,2,2,8.5,0,-8.5,0,0,5,0,4,1,0.3500281,60.00456035
2,95,408,15000,2,1,-8.5,0,-8.5,0,1,6,45,3,1,0.5000744,60.00456035
2,96,397,14300,2,2,8.5,0,-8.5,0,0,5,0,4,1,0.4001295,60.00456035
2,97,481,6855,1,2,8.5,0,-8.5,0,0,5,0,3,1,0.3833774,60.00456035
2,98,522,12355,1,2,-8.5,0,-8.5,0,1,5,0,3,1,0.3684821,60.00456035
2,99,374,13200,2,2,8.5,0,8.5,0,1,5,0,4,1,0.4333901,60.00456035
2,100,283,9800,2,1,8.5,0,-8.5,0,0,5,0,1,1,0.3167119,60.00456035
2,101,111,3600,2,1,-8.5,0,8.5,0,0,5,0,2,1,0.5333345,60.00456035
2,102,204,7000,2,1,-8.5,0,-8.5,0,1,6,45,1,1,0.3667026,60.00456035
2,103,125,4100,2,2,-8.5,0,8.5,0,0,5,0,2,1,0.3833351,60.00456035
2,104,410,15000,2,2,8.5,0,8.5,0,1,6,45,4,1,0.5333363,60.00456035
2,105,277,9600,2,2,8.5,0,-8.5,0,0,5,0,4,1,0.4501114,60.00456035
2,106,124,4100,2,1,8.5,0,8.5,0,1,6,45,3,1,0.4834055,60.00456035
2,107,234,7900,2,2,-8.5,0,-8.5,0,1,5,0,1,1,0.4667537,60.00456035
2,108,75,2600,2,1,-8.5,0,8.5,0,0,5,0,2,1,0.4001346,60.00456035
2,109,560,17255,1,1,-8.5,0,-8.5,0,1,6,45,3,1,0.501139,60.00456035
2,110,159,5500,2,1,-8.5,0,8.5,0,0,5,0,3,1,0.4332328,60.00456035
2,111,221,7500,2,2,-8.5,0,8.5,0,0,6,45,2,1,0.4167638,60.00456035
2,112,232,7900,2,1,8.5,0,8.5,0,1,6,45,4,1,0.3500674,60.00456035
2,113,67,2300,2,1,8.5,0,-8.5,0,0,6,45,2,0,0.3166958,60.00456035
2,114,404,14600,2,1,-8.5,0,-8.5,0,1,5,0,4,1,0.400018,60.00456035
2,115,47,1600,2,1,-8.5,0,8.5,0,0,6,45,4,1,0.4666351,60.00456035
2,116,62,2200,2,2,8.5,0,8.5,0,1,6,45,3,0,0.50002,60.00456035
2,117,555,14155,1,1,-8.5,0,8.5,0,0,6,45,2,1,0.7333461,60.00456035
2,118,37,1100,2,2,8.5,0,-8.5,0,0,6,45,3,1,0.5000308,60.00456035
2,119,77,2700,2,2,-8.5,0,8.5,0,0,5,0,2,1,0.416783,60.00456035
2,120,429,16100,2,2,8.5,0,-8.5,0,0,5,0,2,1,0.3506183,60.00456035
2,121,21,700,2,2,8.5,0,-8.5,0,0,6,45,4,1,0.4334485,60.00456035
2,122,177,6100,2,2,8.5,0,-8.5,0,0,6,45,1,1,0.4500699,60.00456035
2,123,554,14155,1,2,8.5,0,8.5,0,1,6,45,1,1,0.366669,60.00456035
2,124,148,4900,2,1,8.5,0,8.5,0,1,6,45,1,1,0.4167795,60.00456035
2,125,304,10800,2,1,8.5,0,8.5,0,1,6,45,2,1,0.3000702,60.00456035
2,126,133,4300,2,2,8.5,0,-8.5,0,0,6,45,2,1,0.5500196,60.00456035
2,127,88,3000,2,1,8.5,0,8.5,0,1,5,0,2,1,0.6999612,60.00456035
2,128,199,6800,2,1,8.5,0,-8.5,0,0,5,0,1,1,0.5175225,60.00456035
2,129,411,15000,2,1,-8.5,0,8.5,0,0,6,45,1,1,0.5334616,60.00456035
2,130,372,13200,2,1,-8.5,0,-8.5,0,1,5,0,3,1,0.4334836,60.00456035
2,131,386,13800,2,2,8.5,0,8.5,0,1,6,45,2,1,0.6333915,60.00456035
2,132,142,4700,2,2,8.5,0,8.5,0,1,6,45,3,1,0.6000187,60.00456035
2,133,498,10355,1,2,-8.5,0,-8.5,0,1,6,45,1,1,0.4833949,60.00456035
2,134,519,12155,1,1,-8.5,0,8.5,0,0,5,0,3,1,0.500001,60.00456035
2,135,107,3500,2,1,-8.5,0,8.5,0,0,5,0,3,1,0.433471,60.00456035
2,136,421,15700,2,2,8.5,0,-8.5,0,0,5,0,1,1,0.3667734,60.00456035
2,137,371,13100,2,1,-8.5,0,8.5,0,0,5,0,1,1,0.3501311,60.00456035
2,138,128,4200,2,1,-8.5,0,-8.5,0,1,5,0,2,1,0.4334968,60.00456035
2,139,99,3200,2,1,-8.5,0,8.5,0,0,6,45,3,1,0.6667947,60.00456035
2,140,466,3155,1,2,8.5,0,8.5,0,1,5,0,1,1,0.4333796,60.00456035
2,141,323,11300,2,1,-8.5,0,8.5,0,0,6,45,3,1,0.6000492,60.00456035
2,142,294,10500,2,2,-8.5,0,-8.5,0,1,6,45,3,1,0.4334099,60.00456035
2,143,278,9600,2,2,8.5,0,8.5,0,1,6,45,3,1,0.316715,60.00456035
2,144,117,3800,2,2,8.5,0,-8.5,0,0,6,45,2,1,0.5001372,60.00456035
2,145,59,2000,2,1,-8.5,0,8.5,0,0,5,0,1,1,0.6167116,60.00456035
2,146,30,900,2,2,-8.5,0,-8.5,0,1,6,45,3,1,0.7666553,60.00456035
2,147,400,14400,2,1,8.5,0,8.5,0,1,6,45,2,1,0.6500967,60.00456035
2,148,383,13600,2,1,-8.5,0,8.5,0,0,5,0,1,1,0.4501845,60.00456035
2,149,375,13200,2,1,-8.5,0,8.5,0,0,6,45,3,1,0.4333352,60.00456035
2,150,10,300,2,2,8.5,0,8.5,0,1,5,0,4,1,0.4668014,60.00456035
2,151,328,11600,2,1,8.5,0,8.5,0,1,6,45,3,1,0.450034,60.00456035
2,152,17,500,2,2,-8.5,0,8.5,0,0,6,45,1,1,0.6182122,60.00456035
2,153,169,5800,2,2,8.5,0,-8.5,0,0,6,45,3,1,0.5334374,60.00456035
2,154,230,7700,2,2,8.5,0,8.5,0,1,6,45,4,1,0.4854,60.00456035
2,155,141,4700,2,2,8.5,0,-8.5,0,0,6,45,1,1,0.4843539,60.00456035
2,156,409,15000,2,2,8.5,0,-8.5,0,0,6,45,3,1,0.4500275,60.00456035
2,157,309,10900,2,2,8.5,0,-8.5,0,0,6,45,2,1,0.4334207,60.00456035
2,158,139,4500,2,1,8.5,0,-8.5,0,0,6,45,2,1,0.3500183,60.00456035
2,159,291,10100,2,1,-8.5,0,8.5,0,0,5,0,1,1,0.3666357,60.00456035
2,160,508,10855,1,1,8.5,0,8.5,0,1,5,0,4,1,0.366633,60.00456035
2,161,244,8300,2,1,8.5,0,8.5,0,1,5,0,1,1,0.3166439,60.00456035
2,162,542,13255,1,2,8.5,0,8.5,0,1,6,45,3,0,0.3166709,60.00456035
2,163,130,4200,2,2,8.5,0,8.5,0,1,6,45,3,1,0.4333873,60.00456035
2,164,500,10455,1,1,-8.5,0,-8.5,0,1,6,45,4,1,0.4000511,60.00456035
2,165,463,2955,1,1,8.5,0,-8.5,0,0,5,0,2,1,0.4167033,60.00456035
2,166,458,2655,1,2,8.5,0,8.5,0,1,5,0,2,1,0.4342934,60.00456035
2,167,45,1600,2,2,8.5,0,-8.5,0,0,6,45,3,1,0.4501389,60.00456035
2,168,306,10800,2,2,-8.5,0,-8.5,0,1,5,0,3,1,0.5501334,60.00456035
2,169,324,11500,2,1,-8.5,0,-8.5,0,1,5,0,2,1,0.4000321,60.00456035
2,170,8,300,2,1,-8.5,0,-8.5,0,1,5,0,1,1,0.3167381,60.00456035
2,171,246,8300,2,2,-8.5,0,-8.5,0,1,5,0,2,1,0.3667737,60.00456035
2,172,138,4500,2,2,-8.5,0,-8.5,0,1,5,0,4,1,0.4168024,60.00456035
2,173,293,10500,2,2,-8.5,0,8.5,0,0,5,0,3,0,0.3833697,60.00456035
2,174,228,7700,2,1,-8.5,0,-8.5,0,1,6,45,4,1,0.4834015,60.00456035
2,175,255,8600,2,1,-8.5,0,8.5,0,0,5,0,4,1,0.4333466,60.00456035
2,176,104,3500,2,1,-8.5,0,-8.5,0,1,6,45,4,1,0.6507945,60.00456035
2,177,485,6955,1,2,-8.5,0,8.5,0,0,6,45,1,1,0.4167018,60.00456035
2,178,398,14300,2,2,8.5,0,8.5,0,1,5,0,3,1,0.4500884,60.00456035
2,179,430,16100,2,2,8.5,0,8.5,0,1,5,0,2,1,0.3833085,60.00456035
2,180,460,2955,1,1,8.5,0,8.5,0,1,5,0,3,1,0.3833262,60.00456035
2,181,135,4300,2,1,-8.5,0,8.5,0,0,5,0,4,1,0.5333614,60.00456035
2,182,80,2800,2,1,-8.5,0,-8.5,0,1,5,0,1,1,0.3834607,60.00456035
2,183,512,11755,1,1,-8.5,0,-8.5,0,1,6,45,2,1,0.4334066,60.00456035
2,184,379,13400,2,1,8.5,0,-8.5,0,0,5,0,3,1,0.4333929,60.00456035
2,185,470,3355,1,2,8.5,0,8.5,0,1,6,45,2,1,0.5001381,60.00456035
2,186,510,10855,1,2,-8.5,0,-8.5,0,1,5,0,2,1,0.5333376,60.00456035
2,187,12,400,2,1,-8.5,0,-8.5,0,1,6,45,4,1,0.4834182,60.00456035
2,188,462,2955,1,2,-8.5,0,-8.5,0,1,6,45,4,1,0.7166934,60.00456035
2,189,219,7300,2,1,-8.5,0,8.5,0,0,5,0,3,1,0.4000386,60.00456035
2,190,540,13255,1,1,-8.5,0,-8.5,0,1,6,45,3,1,0.5166415,60.00456035
2,191,262,9100,2,2,8.5,0,8.5,0,1,6,45,4,1,0.4000703,60.00456035
2,192,346,12200,2,2,8.5,0,8.5,0,1,5,0,3,1,0.418289,60.00456035
2,193,239,8000,2,1,-8.5,0,8.5,0,0,5,0,1,1,0.5000215,60.00456035
2,194,552,14155,1,1,-8.5,0,-8.5,0,1,5,0,1,1,0.3833797,60.00456035
2,195,313,11000,2,2,8.5,0,-8.5,0,0,6,45,2,1,0.4172772,60.00456035
2,196,394,14200,2,2,8.5,0,8.5,0,1,6,45,1,1,0.5000223,60.00456035
2,197,273,9500,2,2,8.5,0,-8.5,0,0,5,0,4,1,0.4000343,60.00456035
2,198,263,9100,2,1,-8.5,0,8.5,0,0,6,45,4,1,0.7851061,60.00456035
2,199,376,13400,2,1,8.5,0,8.5,0,1,6,45,3,1,0.7001335,60.00456035
2,200,525,12555,1,2,8.5,0,-8.5,0,0,5,0,3,1,0.4333721,60.00456035
2,201,151,4900,2,1,8.5,0,-8.5,0,0,5,0,3,1,0.3833707,60.00456035
2,202,113,3700,2,2,-8.5,0,8.5,0,0,5,0,1,1,0.4333817,60.00456035
2,203,545,13855,1,2,-8.5,0,8.5,0,0,6,45,4,1,0.4333759,60.00456035
2,204,286,10000,2,2,8.5,0,8.5,0,1,5,0,2,1,0.5849163,60.00456035
2,205,19,500,2,1,8.5,0,-8.5,0,0,5,0,2,1,0.5001309,60.00456035
2,206,146,4800,2,2,8.5,0,8.5,0,1,5,0,2,1,0.4334576,60.00456035
2,207,373,13200,2,2,8.5,0,-8.5,0,0,6,45,2,0,0.4168016,60.00456035
2,208,157,5500,2,2,8.5,0,-8.5,0,0,5,0,2,1,0.4834575,60.00456035
2,209,272,9500,2,1,-8.5,0,-8.5,0,1,5,0,2,1,0.7333451,60.00456035
2,210,247,8300,2,1,8.5,0,-8.5,0,0,5,0,2,1,0.3001274,60.00456035
2,211,231,7700,2,1,-8.5,0,8.5,0,0,5,0,1,1,0.3666131,60.00456035
2,212,565,17355,1,2,8.5,0,-8.5,0,0,5,0,2,1,0.3501365,60.00456035
2,213,564,17355,1,1,-8.5,0,-8.5,0,1,5,0,1,1,0.3513673,60.00456035
2,214,423,15700,2,1,-8.5,0,8.5,0,0,6,45,1,1,0.4166226,60.00456035
2,215,56,2000,2,1,-8.5,0,-8.5,0,1,5,0,2,1,0.450049,60.00456035
2,216,164,5700,2,1,-8.5,0,-8.5,0,1,5,0,2,1,0.3833648,60.00456035
2,217,478,6355,1,2,8.5,0,8.5,0,1,5,0,1,1,0.5166988,60.00456035
2,218,203,6900,2,1,-8.5,0,8.5,0,0,5,0,2,1,0.3667407,60.00456035
2,219,150,4900,2,2,-8.5,0,-8.5,0,1,6,45,2,0,0.3333581,60.00456035
2,220,395,14200,2,1,-8.5,0,8.5,0,0,6,45,3,1,0.7001187,60.00456035
2,221,87,2900,2,1,-8.5,0,8.5,0,0,5,0,2,1,0.4333915,60.00456035
2,222,48,1700,2,1,-8.5,0,-8.5,0,1,6,45,3,1,0.5000409,60.00456035
2,223,46,1600,2,2,8.5,0,8.5,0,1,6,45,3,1,0.3667868,60.00456035
2,224,370,13100,2,2,8.5,0,8.5,0,1,6,45,4,1,0.3499957,60.00456035
2,225,455,2255,1,1,-8.5,0,8.5,0,0,6,45,3,1,0.3333182,60.00456035
2,226,187,6300,2,1,8.5,0,-8.5,0,0,6,45,3,1,0.4834215,60.00456035
2,227,521,12355,1,2,-8.5,0,8.5,0,0,5,0,4,1,0.4333725,60.00456035
2,228,345,12200,2,2,8.5,0,-8.5,0,0,6,45,3,1,0.5667632,60.00456035
2,229,381,13600,2,2,8.5,0,-8.5,0,0,5,0,1,1,0.4667239,60.00456035
2,230,275,9500,2,1,-8.5,0,8.5,0,0,5,0,1,1,0.4001502,60.00456035
2,231,457,2655,1,2,8.5,0,-8.5,0,0,5,0,1,1,0.3334232,60.00456035
2,232,541,13255,1,2,8.5,0,-8.5,0,0,5,0,2,1,0.3501411,60.00456035
2,233,236,8000,2,1,-8.5,0,-8.5,0,1,6,45,1,1,0.6333624,60.00456035
2,234,472,4155,1,1,8.5,0,8.5,0,1,5,0,4,1,0.4176599,60.00456035
2,235,355,12500,2,1,8.5,0,-8.5,0,0,6,45,4,1,0.5166904,60.00456035
2,236,486,6955,1,2,-8.5,0,-8.5,0,1,5,0,3,1,0.433408,60.00456035
2,237,422,15700,2,2,8.5,0,8.5,0,1,6,45,1,1,0.6334096,60.00456035
2,238,550,14055,1,2,8.5,0,8.5,0,1,5,0,4,1,0.4167744,60.00456035
2,239,74,2600,2,2,8.5,0,8.5,0,1,6,45,4,1,0.6001281,60.00456035
2,240,43,1300,2,1,8.5,0,-8.5,0,0,6,45,2,1,0.7000208,60.00456035
2,241,475,4155,1,1,8.5,0,-8.5,0,0,6,45,4,1,0.4516092,60.00456035
2,242,233,7900,2,2,-8.5,0,8.5,0,0,6,45,4,1,0.4666924,60.00456035
2,243,190,6500,2,2,8.5,0,8.5,0,1,5,0,3,1,0.6834188,60.00456035
2,244,368,13100,2,1,-8.5,0,-8.5,0,1,6,45,4,1,0.4667833,60.00456035
2,245,245,8300,2,2,-8.5,0,8.5,0,0,5,0,3,1,0.533446,60.00456035
2,246,511,10855,1,1,8.5,0,-8.5,0,0,5,0,2,1,0.5333866,60.00456035
2,247,403,14400,2,1,8.5,0,-8.5,0,0,6,45,3,1,0.6348197,60.00456035
2,248,479,6355,1,1,-8.5,0,8.5,0,0,5,0,4,1,0.4833839,60.00456035
2,249,356,12600,2,1,-8.5,0,-8.5,0,1,5,0,2,1,0.4166908,60.00456035
2,250,424,15800,2,1,8.5,0,8.5,0,1,6,45,3,1,0.3518322,60.00456035
2,251,40,1300,2,1,8.5,0,8.5,0,1,6,45,3,1,0.3332516,60.00456035
2,252,196,6800,2,1,8.5,0,8.5,0,1,5,0,1,1,0.433374,60.00456035
2,253,93,3100,2,2,8.5,0,-8.5,0,0,5,0,1,1,0.350038,60.00456035
2,254,184,6300,2,1,8.5,0,8.5,0,1,5,0,3,1,0.4672338,60.00456035
2,255,22,700,2,2,8.5,0,8.5,0,1,6,45,4,1,0.4501419,60.00456035
2,256,155,5200,2,1,-8.5,0,8.5,0,0,5,0,3,1,0.4834633,60.00456035
2,257,380,13600,2,1,-8.5,0,-8.5,0,1,6,45,1,1,0.6000187,60.00456035
2,258,322,11300,2,2,8.5,0,8.5,0,1,5,0,2,1,0.4667017,60.00456035
2,259,363,12700,2,1,-8.5,0,8.5,0,0,5,0,3,1,0.450046,60.00456035
2,260,14,400,2,2,8.5,0,8.5,0,1,5,0,2,1,0.4000812,60.00456035
2,261,2,100,2,2,8.5,0,8.5,0,1,6,45,1,1,0.6667409,60.00456035
2,262,342,12100,2,2,-8.5,0,-8.5,0,1,6,45,4,0,0.4518504,60.00456035
2,263,298,10600,2,2,8.5,0,8.5,0,1,6,45,4,1,0.5833904,60.00456035
2,264,217,7300,2,2,8.5,0,-8.5,0,0,6,45,4,1,0.4334031,60.00456035
2,265,311,10900,2,1,-8.5,0,8.5,0,0,5,0,1,1,0.4334609,60.00456035
2,266,188,6500,2,1,-8.5,0,-8.5,0,1,5,0,1,1,0.3833903,60.00456035
2,267,515,11755,1,1,-8.5,0,8.5,0,0,5,0,2,1,0.4834017,60.00456035
2,268,539,13155,1,1,-8.5,0,8.5,0,0,6,45,4,1,0.4334058,60.00456035
2,269,136,4500,2,1,8.5,0,8.5,0,1,5,0,2,1,0.435321,60.00456035
2,270,34,1000,2,2,8.5,0,8.5,0,1,6,45,4,1,0.333324,60.00456035
2,271,517,12155,1,2,8.5,0,-8.5,0,0,5,0,2,1,0.4334079,60.00456035
2,272,185,6300,2,2,-8.5,0,8.5,0,0,5,0,1,1,0.4500487,60.00456035
2,273,440,1255,1,1,-8.5,0,-8.5,0,1,6,45,2,1,0.4166967,60.00456035
2,274,41,1300,2,2,-8.5,0,8.5,0,0,6,45,2,1,0.5336974,60.00456035
2,275,388,14100,2,1,8.5,0,8.5,0,1,5,0,4,1,0.46874,60.00456035
2,276,179,6100,2,1,-8.5,0,8.5,0,0,6,45,2,0,0.3500121,60.00456035
2,277,100,3300,2,1,8.5,0,8.5,0,1,5,0,1,1,0.5333773,60.00456035
2,278,193,6600,2,2,8.5,0,-8.5,0,0,6,45,2,1,0.3667789,60.00456035
2,279,349,12400,2,2,8.5,0,-8.5,0,0,6,45,3,1,0.4526249,60.00456035
2,280,360,12700,2,1,-8.5,0,-8.5,0,1,5,0,1,1,0.3667131,60.00456035
2,281,145,4800,2,2,8.5,0,-8.5,0,0,5,0,3,1,0.3166921,60.00456035
2,282,241,8100,2,2,8.5,0,-8.5,0,0,6,45,4,1,0.4666796,60.00456035
2,283,60,2200,2,1,-8.5,0,-8.5,0,1,6,45,3,1,0.3501452,60.00456035
2,284,490,9255,1,2,8.5,0,8.5,0,1,6,45,4,1,0.3668016,60.00456035
2,285,369,13100,2,2,8.5,0,-8.5,0,0,5,0,4,1,0.3501263,60.00456035
2,286,18,500,2,2,-8.5,0,-8.5,0,1,5,0,2,0,0.3834428,60.00456035
2,287,384,13800,2,1,-8.5,0,-8.5,0,1,6,45,1,1,0.3833158,60.00456035
2,288,198,6800,2,2,-8.5,0,-8.5,0,1,5,0,2,1,0.4515775,60.00456035
2,289,401,14400,2,2,-8.5,0,8.5,0,0,6,45,4,1,0.4000356,60.00456035
2,290,284,10000,2,1,-8.5,0,-8.5,0,1,6,45,3,1,0.4667168,60.00456035
2,291,464,3155,1,1,-8.5,0,-8.5,0,1,5,0,2,1,0.3667636,60.00456035
2,292,314,11000,2,2,8.5,0,8.5,0,1,5,0,2,1,0.4166952,60.00456035
2,293,76,2700,2,1,8.5,0,8.5,0,1,6,45,2,1,0.3501421,60.00456035
2,294,85,2900,2,2,8.5,0,-8.5,0,0,6,45,3,1,0.4501406,60.00456035
2,295,235,7900,2,1,8.5,0,-8.5,0,0,5,0,2,1,0.4333414,60.00456035
2,296,378,13400,2,2,-8.5,0,-8.5,0,1,5,0,1,1,0.4500364,60.00456035
2,297,254,8600,2,2,8.5,0,8.5,0,1,6,45,3,1,0.5166869,60.00456035
2,298,15,400,2,1,-8.5,0,8.5,0,0,5,0,3,1,0.5001281,60.00456035
2,299,160,5600,2,1,8.5,0,8.5,0,1,6,45,1,1,0.5000194,60.00456035
2,300,385,13800,2,2,8.5,0,-8.5,0,0,6,45,2,1,0.451025,60.00456035
2,301,270,9400,2,2,-8.5,0,-8.5,0,1,6,45,3,1,0.6333792,60.00456035
2,302,448,2155,1,1,8.5,0,8.5,0,1,5,0,2,1,0.4504999,60.00456035
2,303,162,5600,2,2,-8.5,0,-8.5,0,1,5,0,3,1,0.5692401,60.00456035
2,304,292,10500,2,1,8.5,0,8.5,0,1,6,45,3,1,0.4001127,60.00456035
2,305,514,11755,1,2,8.5,0,8.5,0,1,6,45,3,1,0.5333935,60.00456035
2,306,71,2500,2,1,-8.5,0,8.5,0,0,6,45,1,1,0.3334274,60.00456035
2,307,98,3200,2,2,8.5,0,8.5,0,1,6,45,3,1,0.3500032,60.00456035
2,308,405,14600,2,2,8.5,0,-8.5,0,0,6,45,2,0,0.3334029,60.00456035
2,309,175,6000,2,1,8.5,0,-8.5,0,0,6,45,1,1,0.4834209,60.00456035
2,310,331,11600,2,1,8.5,0,-8.5,0,0,6,45,3,1,0.3667745,60.00456035
2,311,268,9400,2,1,8.5,0,8.5,0,1,6,45,4,1,0.3501452,60.00456035
2,312,362,12700,2,2,8.5,0,8.5,0,1,6,45,4,1,0.3500301,60.00456035
2,313,419,15300,2,1,-8.5,0,8.5,0,0,6,45,2,1,0.3333794,60.00456035
2,314,183,6200,2,1,-8.5,0,8.5,0,0,6,45,3,1,0.3332576,60.00456035
2,315,461,2955,1,2,-8.5,0,8.5,0,0,5,0,2,1,0.4834299,60.00456035
2,316,237,8000,2,2,8.5,0,-8.5,0,0,6,45,1,1,0.4833719,60.00456035
2,317,171,5800,2,1,-8.5,0,8.5,0,0,5,0,2,1,0.4685436,60.00456035
2,318,319,11100,2,1,8.5,0,-8.5,0,0,5,0,4,1,0.5334106,60.00456035
2,319,480,6855,1,1,-8.5,0,-8.5,0,1,6,45,4,1,0.5179878,60.00456035
2,320,353,12500,2,2,-8.5,0,8.5,0,0,6,45,4,1,0.3667139,60.00456035
2,321,365,12900,2,2,-8.5,0,8.5,0,0,6,45,4,1,0.4000561,60.00456035
2,322,256,8700,2,1,8.5,0,8.5,0,1,5,0,1,1,0.5001715,60.00456035
2,323,265,9300,2,2,8.5,0,-8.5,0,0,5,0,4,0,0.3168058,60.00456035
2,324,202,6900,2,2,8.5,0,8.5,0,1,6,45,3,1,0.3667163,60.00456035
2,325,426,15800,2,2,-8.5,0,-8.5,0,1,5,0,1,1,0.3834267,60.00456035
2,326,16,500,2,1,8.5,0,8.5,0,1,6,45,4,1,0.5166709,60.00456035
2,327,266,9300,2,2,8.5,0,8.5,0,1,6,45,4,1,0.3666558,60.00456035
2,328,3,100,2,1,-8.5,0,8.5,0,0,5,0,3,1,0.483434,60.00456035
2,329,176,6100,2,1,-8.5,0,-8.5,0,1,5,0,4,1,0.3667026,60.00456035
2,330,393,14200,2,2,8.5,0,-8.5,0,0,6,45,1,1,0.5343333,60.00456035
2,331,535,13055,1,1,8.5,0,-8.5,0,0,5,0,3,1,0.5167394,60.00456035
2,332,240,8100,2,1,-8.5,0,-8.5,0,1,5,0,4,1,0.3501335,60.00456035
2,333,23,700,2,1,-8.5,0,8.5,0,0,5,0,3,1,0.4667913,60.00456035
2,334,484,6955,1,1,8.5,0,8.5,0,1,6,45,3,1,0.5001109,60.00456035
2,335,359,12600,2,1,-8.5,0,8.5,0,0,5,0,3,1,0.4166853,60.00456035
2,336,310,10900,2,2,8.5,0,8.5,0,1,5,0,1,1,0.4166512,60.00456035
2,337,509,10855,1,2,-8.5,0,8.5,0,0,6,45,3,1,0.8166858,60.00456035
2,338,27,800,2,1,-8.5,0,8.5,0,0,5,0,1,1,0.4333826,60.00456035
2,339,390,14100,2,2,-8.5,0,-8.5,0,1,6,45,1,0,0.4166692,60.00456035
2,340,474,4155,1,2,-8.5,0,-8.5,0,1,5,0,2,1,0.483382,60.00456035
2,341,297,10600,2,2,8.5,0,-8.5,0,0,5,0,1,1,0.4999634,60.00456035
2,342,402,14400,2,2,-8.5,0,-8.5,0,1,5,0,4,1,0.4333824,60.00456035
2,343,350,12400,2,2,8.5,0,8.5,0,1,6,45,2,1,0.3500443,60.00456035
2,344,428,16100,2,1,-8.5,0,-8.5,0,1,6,45,1,1,0.5015373,60.00456035
2,345,547,13855,1,1,8.5,0,-8.5,0,0,6,45,2,1,0.4000273,60.00456035
2,346,276,9600,2,1,-8.5,0,-8.5,0,1,6,45,1,1,0.3834011,60.00456035
2,347,469,3355,1,2,8.5,0,-8.5,0,0,6,45,4,1,0.4000126,60.00456035
2,348,441,1255,1,2,8.5,0,-8.5,0,0,5,0,3,1,0.4680519,60.00456035
2,349,158,5500,2,2,8.5,0,8.5,0,1,5,0,1,1,0.7501324,60.00456035
2,350,194,6600,2,2,8.5,0,8.5,0,1,5,0,1,1,0.299996,60.00456035
2,351,437,455,1,2,-8.5,0,8.5,0,0,6,45,3,1,0.4333715,60.00456035
2,352,57,2000,2,2,8.5,0,-8.5,0,0,5,0,2,1,0.4341664,60.00456035
2,353,38,1100,2,2,8.5,0,8.5,0,1,5,0,4,1,0.4500451,60.00456035
2,354,154,5200,2,2,8.5,0,8.5,0,1,6,45,4,0,0.3333806,60.00456035
2,355,557,14355,1,2,-8.5,0,8.5,0,0,5,0,2,1,0.4000364,60.00456035
2,356,79,2700,2,1,8.5,0,-8.5,0,0,5,0,3,1,0.5001,60.00456035
2,357,209,7100,2,2,-8.5,0,8.5,0,0,6,45,4,1,0.333441,60.00456035
2,358,489,9255,1,2,8.5,0,-8.5,0,0,5,0,3,1,0.3833745,60.00456035
2,359,260,9100,2,1,-8.5,0,-8.5,0,1,5,0,1,1,0.3834646,60.00456035
2,360,334,11700,2,2,8.5,0,8.5,0,1,5,0,3,1,0.3346379,60.00456035
2,361,563,17255,1,1,-8.5,0,8.5,0,0,5,0,2,1,0.367813,60.00456035
2,362,501,10455,1,2,8.5,0,-8.5,0,0,6,45,1,1,0.4167941,60.00456035
2,363,112,3700,2,1,8.5,0,8.5,0,1,6,45,1,1,0.383455,60.00456035
2,364,406,14600,2,2,8.5,0,8.5,0,1,5,0,1,0,0.3001293,60.00456035
2,365,53,1800,2,2,-8.5,0,8.5,0,0,5,0,4,1,0.4334277,60.00456035
2,366,96,3200,2,1,-8.5,0,-8.5,0,1,5,0,4,1,0.4166438,60.00456035
2,367,516,12155,1,1,-8.5,0,-8.5,0,1,6,45,4,1,0.6499792,60.00456035
2,368,413,15200,2,2,-8.5,0,8.5,0,0,5,0,4,1,0.4667689,60.00456035
2,369,551,14055,1,1,-8.5,0,8.5,0,0,5,0,1,1,0.53342,60.00456035
2,370,108,3600,2,1,-8.5,0,-8.5,0,1,5,0,3,1,0.5167034,60.00456035
2,371,302,10700,2,2,8.5,0,8.5,0,1,5,0,1,1,0.4667947,60.00456035
2,372,180,6200,2,1,-8.5,0,-8.5,0,1,6,45,4,1,0.4500826,60.00456035
2,373,482,6855,1,2,8.5,0,8.5,0,1,5,0,1,1,0.4333911,60.00456035
2,374,168,5800,2,1,-8.5,0,-8.5,0,1,5,0,1,1,0.433314,60.00456035
2,375,285,10000,2,2,8.5,0,-8.5,0,0,5,0,4,1,0.4500275,60.00456035
2,376,258,8700,2,2,-8.5,0,-8.5,0,1,6,45,1,1,0.3666776,60.00456035
2,377,261,9100,2,2,8.5,0,-8.5,0,0,5,0,2,1,0.3833882,60.00456035
2,378,106,3500,2,2,8.5,0,8.5,0,1,5,0,4,1,0.4334644,60.00456035
2,379,119,3800,2,1,-8.5,0,8.5,0,0,6,45,4,1,0.9183322,60.00456035
2,380,35,1000,2,1,-8.5,0,8.5,0,0,5,0,2,1,0.4334677,60.00456035
2,381,487,6955,1,1,8.5,0,-8.5,0,0,6,45,4,1,0.4334431,60.00456035
2,382,222,7500,2,2,-8.5,0,-8.5,0,1,6,45,1,1,0.3841131,60.00456035
2,383,95,3100,2,1,-8.5,0,8.5,0,0,6,45,3,1,0.4501284,60.00456035
2,384,382,13600,2,2,8.5,0,8.5,0,1,6,45,3,1,0.386087,60.00456035
2,385,524,12555,1,1,-8.5,0,-8.5,0,1,5,0,4,1,0.583359,60.00456035
2,386,238,8000,2,2,8.5,0,8.5,0,1,6,45,3,1,0.4834191,60.00456035
2,387,305,10800,2,2,-8.5,0,8.5,0,0,6,45,2,1,0.3500507,60.00456035
2,388,506,10555,1,2,8.5,0,8.5,0,1,5,0,1,1,0.3834021,60.00456035
2,389,156,5500,2,1,-8.5,0,-8.5,0,1,6,45,4,1,0.4333913,60.00456035
2,390,200,6900,2,1,-8.5,0,-8.5,0,1,6,45,4,1,0.3667441,60.00456035
2,391,4,200,2,1,8.5,0,8.5,0,1,5,0,2,1,0.3845619,60.00456035
2,392,450,2155,1,2,-8.5,0,-8.5,0,1,5,0,2,1,0.4667623,60.00456035
2,393,502,10455,1,2,8.5,0,8.5,0,1,5,0,3,1,0.4006282,60.00456035
2,394,377,13400,2,2,-8.5,0,8.5,0,0,5,0,1,1,0.483347,60.00456035
2,395,69,2500,2,2,8.5,0,-8.5,0,0,6,45,2,1,0.383379,60.00456035
2,396,63,2200,2,1,-8.5,0,8.5,0,0,6,45,4,1,0.3500629,60.00456035
2,397,86,2900,2,2,8.5,0,8.5,0,1,5,0,1,1,0.4166809,60.00456035
2,398,315,11000,2,1,-8.5,0,8.5,0,0,5,0,4,1,0.4166397,60.00456035
2,399,341,12100,2,2,-8.5,0,8.5,0,0,5,0,2,1,0.3667045,60.00456035
2,400,337,12000,2,2,8.5,0,-8.5,0,0,6,45,1,1,0.333408,60.00456035
2,401,129,4200,2,2,8.5,0,-8.5,0,0,5,0,4,1,0.5500331,60.00456035
2,402,558,14355,1,2,-8.5,0,-8.5,0,1,6,45,1,1,0.4500385,60.00456035
2,403,447,1855,1,1,-8.5,0,8.5,0,0,5,0,1,1,0.4334008,60.00456035
2,404,28,900,2,1,8.5,0,8.5,0,1,5,0,3,1,0.3667461,60.00456035
2,405,493,10155,1,2,8.5,0,-8.5,0,0,5,0,2,0,0.3834648,60.00456035
2,406,559,14355,1,1,8.5,0,-8.5,0,0,5,0,2,1,0.4833202,60.00456035
2,407,191,6500,2,1,-8.5,0,8.5,0,0,5,0,1,1,0.7167646,60.00456035
2,408,269,9400,2,2,-8.5,0,8.5,0,0,6,45,2,1,0.4166215,60.00456035
2,409,523,12355,1,1,8.5,0,-8.5,0,0,5,0,4,1,0.3832898,60.00456035
2,410,257,8700,2,2,-8.5,0,8.5,0,0,6,45,3,1,0.5166987,60.00456035
2,411,31,900,2,1,8.5,0,-8.5,0,0,6,45,2,1,0.3668078,60.00456035
2,412,207,7000,2,1,-8.5,0,8.5,0,0,5,0,1,1,0.3667069,60.00456035
2,413,326,11500,2,2,8.5,0,8.5,0,1,5,0,2,1,0.5000323,60.00456035
2,414,250,8400,2,2,8.5,0,8.5,0,1,5,0,3,1,0.4001165,60.00456035
2,415,549,14055,1,2,8.5,0,-8.5,0,0,6,45,1,1,0.4834006,60.00456035
2,416,530,12855,1,2,8.5,0,8.5,0,1,6,45,4,1,0.3833757,60.00456035
2,417,114,3700,2,2,-8.5,0,-8.5,0,1,6,45,1,1,0.4333783,60.00456035
2,418,417,15300,2,2,8.5,0,-8.5,0,0,5,0,2,1,0.4000409,60.00456035
2,419,354,12500,2,2,-8.5,0,-8.5,0,1,5,0,2,1,0.3684687,60.00456035
2,420,534,13055,1,2,-8.5,0,-8.5,0,1,6,45,3,1,0.4001336,60.00456035
2,421,358,12600,2,2,8.5,0,8.5,0,1,5,0,2,0,0.3167527,60.00456035
2,422,5,200,2,2,-8.5,0,8.5,0,0,6,45,3,1,0.3500362,60.00456035
2,423,312,11000,2,1,-8.5,0,-8.5,0,1,6,45,2,0,0.3834523,60.00456035
2,424,533,13055,1,2,-8.5,0,8.5,0,0,6,45,2,1,0.4667141,60.00456035
2,425,264,9300,2,1,-8.5,0,-8.5,0,1,6,45,3,1,0.4166493,60.00456035
2,426,267,9300,2,1,-8.5,0,8.5,0,0,5,0,1,1,0.416738,60.00456035
2,427,529,12855,1,2,8.5,0,-8.5,0,0,6,45,3,1,0.5166393,60.00456035
2,428,387,13800,2,1,-8.5,0,8.5,0,0,5,0,1,1,0.3666284,60.00456035
2,429,214,7200,2,2,8.5,0,8.5,0,1,6,45,2,0,0.450091,60.00456035
2,430,504,10555,1,1,-8.5,0,-8.5,0,1,6,45,4,1,0.6166628,60.00456035
2,431,6,200,2,2,-8.5,0,-8.5,0,1,5,0,4,1,0.5166804,60.00456035
2,432,73,2600,2,2,8.5,0,-8.5,0,0,5,0,4,1,0.4167072,60.00456035
2,433,243,8100,2,1,-8.5,0,8.5,0,0,6,45,3,1,0.3684537,60.00456035
2,434,471,3355,1,1,-8.5,0,8.5,0,0,5,0,2,1,0.4167219,60.00456035
2,435,449,2155,1,2,-8.5,0,8.5,0,0,6,45,4,1,0.5168041,60.00456035
2,436,505,10555,1,2,8.5,0,-8.5,0,0,6,45,3,1,0.5334405,60.00456035
2,437,497,10355,1,2,-8.5,0,8.5,0,0,5,0,3,1,0.4001384,60.00456035
2,438,131,4200,2,1,-8.5,0,8.5,0,0,6,45,3,1,0.5333639,60.00456035
2,439,218,7300,2,2,8.5,0,8.5,0,1,5,0,1,1,0.466715,60.00456035
2,440,101,3300,2,2,-8.5,0,8.5,0,0,5,0,3,1,0.4667371,60.00456035
2,441,201,6900,2,2,8.5,0,-8.5,0,0,6,45,4,1,0.384358,60.00456035
2,442,121,4000,2,2,8.5,0,-8.5,0,0,5,0,1,1,0.4334048,60.00456035
2,443,526,12555,1,2,8.5,0,8.5,0,1,5,0,2,1,0.5166995,60.00456035
2,444,527,12555,1,1,-8.5,0,8.5,0,0,5,0,1,1,0.5167004,60.00456035
2,445,420,15700,2,1,-8.5,0,-8.5,0,1,6,45,4,1,0.3667164,60.00456035
2,446,120,4000,2,1,-8.5,0,-8.5,0,1,5,0,2,1,0.5333585,60.00456035
2,447,567,17355,1,1,-8.5,0,8.5,0,0,5,0,2,0,0.333471,60.00456035
2,448,216,7300,2,1,-8.5,0,-8.5,0,1,6,45,3,1,0.4501191,60.00456035
2,449,94,3100,2,2,8.5,0,8.5,0,1,6,45,1,1,0.4197909,60.00456035
2,450,11,300,2,1,-8.5,0,8.5,0,0,5,0,3,1,0.3834297,60.00456035
2,451,281,9800,2,2,-8.5,0,8.5,0,0,5,0,1,1,0.3834184,60.00456035
2,452,89,3000,2,2,-8.5,0,8.5,0,0,6,45,4,1,0.5833765,60.00456035
2,453,91,3000,2,1,8.5,0,-8.5,0,0,5,0,2,1,0.383412,60.00456035
2,454,325,11500,2,2,8.5,0,-8.5,0,0,6,45,4,1,0.4500215,60.00456035
2,455,223,7500,2,1,8.5,0,-8.5,0,0,6,45,1,1,0.5000589,60.00456035
2,456,126,4100,2,2,-8.5,0,-8.5,0,1,5,0,2,1,0.483369,60.00456035
2,457,445,1855,1,2,8.5,0,-8.5,0,0,5,0,3,1,0.3166994,60.00456035
2,458,433,16200,2,2,8.5,0,-8.5,0,0,6,45,3,1,0.6333527,60.00456035
2,459,507,10555,1,1,-8.5,0,8.5,0,0,5,0,2,1,0.4667667,60.00456035
2,460,332,11700,2,1,-8.5,0,-8.5,0,1,5,0,4,1,0.4667561,60.00456035
2,461,127,4100,2,1,8.5,0,-8.5,0,0,6,45,3,1,0.4009761,60.00456035
2,462,64,2300,2,1,8.5,0,8.5,0,1,5,0,2,1,0.4166461,60.00456035
2,463,205,7000,2,2,8.5,0,-8.5,0,0,5,0,1,0,0.3503521,60.00456035
2,464,494,10155,1,2,8.5,0,8.5,0,1,6,45,2,1,0.3499926,60.00456035
2,465,468,3355,1,1,-8.5,0,-8.5,0,1,5,0,1,1,0.3834656,60.00456035
2,466,115,3700,2,1,8.5,0,-8.5,0,0,5,0,4,1,0.366775,60.00456035
2,467,20,700,2,1,-8.5,0,-8.5,0,1,6,45,3,1,0.5333856,60.00456035
2,468,396,14300,2,1,-8.5,0,-8.5,0,1,6,45,3,1,0.4167842,60.00456035
2,469,434,16200,2,2,8.5,0,8.5,0,1,6,45,3,1,0.3500237,60.00456035
2,470,299,10600,2,1,-8.5,0,8.5,0,0,6,45,2,1,0.5000474,60.00456035
2,471,418,15300,2,2,8.5,0,8.5,0,1,5,0,1,1,0.5001285,60.00456035
2,472,391,14100,2,1,8.5,0,-8.5,0,0,6,45,2,1,0.4000409,60.00456035
2,473,195,6600,2,1,-8.5,0,8.5,0,0,5,0,1,1,0.46676,60.00456035
2,474,163,5600,2,1,8.5,0,-8.5,0,0,5,0,4,1,0.4000129,60.00456035
2,475,49,1700,2,2,8.5,0,-8.5,0,0,5,0,1,1,0.3501241,60.00456035
2,476,54,1800,2,2,-8.5,0,-8.5,0,1,5,0,4,1,0.5000202,60.00456035
2,477,427,15800,2,1,8.5,0,-8.5,0,0,6,45,2,1,0.3667989,60.00456035
2,478,330,11600,2,2,-8.5,0,-8.5,0,1,5,0,4,1,0.3668176,60.00456035
2,479,123,4000,2,1,-8.5,0,8.5,0,0,5,0,4,1,0.4833701,60.00456035
2,480,491,9255,1,1,-8.5,0,8.5,0,0,6,45,4,1,0.3666276,60.00456035
2,481,553,14155,1,2,8.5,0,-8.5,0,0,6,45,3,1,0.4166985,60.00456035
2,482,288,10100,2,1,-8.5,0,-8.5,0,1,6,45,4,1,0.3667636,60.00456035
2,483,68,2500,2,1,-8.5,0,-8.5,0,1,6,45,1,1,0.3167787,60.00456035
2,484,321,11300,2,2,8.5,0,-8.5,0,0,5,0,1,1,0.3500187,60.00456035
2,485,561,17255,1,2,8.5,0,-8.5,0,0,6,45,4,0,0.2999787,60.00456035
2,486,431,16100,2,1,-8.5,0,8.5,0,0,6,45,1,1,0.7999978,60.00456035
2,487,532,13055,1,1,8.5,0,8.5,0,1,5,0,4,1,0.5167612,60.00456035
2,488,170,5800,2,2,8.5,0,8.5,0,1,6,45,4,1,0.6667523,60.00456035
2,489,25,800,2,2,8.5,0,-8.5,0,0,6,45,4,1,0.4011065,60.00456035
2,490,392,14200,2,1,-8.5,0,-8.5,0,1,5,0,1,1,0.7363022,60.00456035
2,491,50,1700,2,2,8.5,0,8.5,0,1,5,0,1,1,0.500031,60.00456035
2,492,144,4800,2,1,-8.5,0,-8.5,0,1,6,45,3,1,0.3834364,60.00456035
2,493,13,400,2,2,8.5,0,-8.5,0,0,6,45,3,1,0.4500285,60.00456035
2,494,211,7100,2,1,8.5,0,-8.5,0,0,5,0,1,1,0.5334359,60.00456035
2,495,443,1255,1,1,-8.5,0,8.5,0,0,6,45,3,1,0.4333658,60.00456035
2,496,415,15200,2,1,8.5,0,-8.5,0,0,6,45,2,1,0.4332933,60.00456035
2,497,307,10800,2,1,8.5,0,-8.5,0,0,5,0,3,1,0.3834399,60.00456035
2,498,182,6200,2,2,8.5,0,8.5,0,1,6,45,1,1,0.3667731,60.00456035
2,499,439,455,1,1,8.5,0,-8.5,0,0,5,0,1,1,0.4679341,60.00456035
2,500,348,12400,2,1,-8.5,0,-8.5,0,1,6,45,4,1,0.4842386,60.00456035
2,501,329,11600,2,2,-8.5,0,8.5,0,0,5,0,2,1,0.3840146,60.00456035
2,502,42,1300,2,2,-8.5,0,-8.5,0,1,6,45,3,1,0.4336264,60.00456035
2,503,213,7200,2,2,8.5,0,-8.5,0,0,6,45,2,1,0.3834444,60.00456035
2,504,197,6800,2,2,-8.5,0,8.5,0,0,5,0,4,1,0.3833476,60.00456035
2,505,116,3800,2,1,-8.5,0,-8.5,0,1,5,0,4,1,0.3666813,60.00456035
2,506,290,10100,2,2,8.5,0,8.5,0,1,6,45,3,1,0.4500439,60.00456035
2,507,103,3300,2,1,8.5,0,-8.5,0,0,5,0,3,1,0.3666847,60.00456035
2,508,442,1255,1,2,8.5,0,8.5,0,1,6,45,4,1,0.3834417,60.00456035
2,509,459,2655,1,1,-8.5,0,8.5,0,0,5,0,2,0,0.3512422,60.00456035
2,510,105,3500,2,2,8.5,0,-8.5,0,0,6,45,1,1,0.533416,60.00456035
2,511,339,12000,2,1,-8.5,0,8.5,0,0,6,45,2,1,0.5000517,60.00456035
2,512,102,3300,2,2,-8.5,0,-8.5,0,1,5,0,1,1,0.4166629,60.00456035
2,513,531,12855,1,1,-8.5,0,8.5,0,0,6,45,4,1,0.4001151,60.00456035
2,514,208,7100,2,1,8.5,0,8.5,0,1,6,45,1,1,0.4167913,60.00456035
2,515,32,1000,2,1,-8.5,0,-8.5,0,1,5,0,1,1,0.4167818,60.00456035
2,516,66,2300,2,2,-8.5,0,-8.5,0,1,6,45,4,1,0.433333,60.00456035
2,517,33,1000,2,2,8.5,0,-8.5,0,0,5,0,2,1,0.4167915,60.00456035
2,518,137,4500,2,2,-8.5,0,8.5,0,0,5,0,1,0,0.3668049,60.00456035
2,519,110,3600,2,2,8.5,0,8.5,0,1,5,0,2,1,0.5167755,60.00456035
2,520,536,13155,1,1,-8.5,0,-8.5,0,1,6,45,2,1,0.5834095,60.00456035
2,521,308,10900,2,1,-8.5,0,-8.5,0,1,6,45,4,1,0.4667488,60.00456035
2,522,473,4155,1,2,-8.5,0,8.5,0,0,6,45,4,1,0.3667843,60.00456035
2,523,438,455,1,2,-8.5,0,-8.5,0,1,6,45,4,1,0.3667798,60.00456035
2,524,477,6355,1,2,8.5,0,-8.5,0,0,6,45,3,1,0.4668029,60.00456035
2,525,412,15200,2,1,8.5,0,8.5,0,1,5,0,2,1,0.3667147,60.00456035
2,526,296,10600,2,1,-8.5,0,-8.5,0,1,6,45,4,1,0.3834035,60.00456035
2,527,317,11100,2,2,-8.5,0,8.5,0,0,6,45,3,1,0.3666506,60.00456035
2,528,367,12900,2,1,8.5,0,-8.5,0,0,5,0,4,1,0.3500461,60.00456035
2,529,416,15300,2,1,-8.5,0,-8.5,0,1,5,0,2,1,0.3334096,60.00456035
2,530,289,10100,2,2,8.5,0,-8.5,0,0,6,45,2,0,0.3334361,60.00456035
2,531,336,12000,2,1,-8.5,0,-8.5,0,1,6,45,3,1,0.5668148,60.00456035
2,532,253,8600,2,2,8.5,0,-8.5,0,0,5,0,2,1,0.5000459,60.00456035
2,533,153,5200,2,2,8.5,0,-8.5,0,0,5,0,2,1,0.3834105,60.00456035
2,534,543,13255,1,1,-8.5,0,8.5,0,0,6,45,1,1,0.3517536,60.00456035
2,535,210,7100,2,2,-8.5,0,-8.5,0,1,6,45,1,1,0.6500256,60.00456035
2,536,301,10700,2,2,8.5,0,-8.5,0,0,6,45,3,1,0.4166409,60.00456035
2,537,189,6500,2,2,8.5,0,-8.5,0,0,5,0,4,1,0.4333789,60.00456035
2,538,347,12200,2,1,-8.5,0,8.5,0,0,6,45,2,1,0.3666873,60.00456035
2,539,29,900,2,2,-8.5,0,8.5,0,0,6,45,4,1,0.3000611,60.00456035
2,540,562,17255,1,2,8.5,0,8.5,0,1,5,0,2,1,0.5167004,60.00456035
2,541,432,16200,2,1,-8.5,0,-8.5,0,1,6,45,4,1,0.4833396,60.00456035
2,542,318,11100,2,2,-8.5,0,-8.5,0,1,6,45,4,1,0.3833632,60.00456035
2,543,366,12900,2,2,-8.5,0,-8.5,0,1,6,45,3,1,0.3501502,60.00456035
2,544,333,11700,2,2,8.5,0,-8.5,0,0,5,0,4,1,0.416709,60.00456035
2,545,503,10455,1,1,-8.5,0,8.5,0,0,5,0,1,1,0.4832804,60.00456035
2,546,72,2600,2,1,-8.5,0,-8.5,0,1,6,45,4,1,0.6334485,60.00456035
2,547,167,5700,2,1,-8.5,0,8.5,0,0,6,45,3,1,0.5348949,60.00456035
2,548,451,2155,1,1,8.5,0,-8.5,0,0,5,0,1,1,0.3515519,60.00456035
2,549,444,1855,1,1,-8.5,0,-8.5,0,1,5,0,2,1,0.4678901,60.00456035
2,550,389,14100,2,2,-8.5,0,8.5,0,0,6,45,2,1,0.3500391,60.00456035
2,551,26,800,2,2,8.5,0,8.5,0,1,6,45,4,1,0.4506078,60.00456035
2,552,134,4300,2,2,8.5,0,8.5,0,1,6,45,4,1,0.383306,60.00456035
2,553,327,11500,2,1,-8.5,0,8.5,0,0,5,0,1,1,0.550024,60.00456035
2,554,226,7600,2,2,8.5,0,8.5,0,1,5,0,1,1,0.4499525,60.00456035
2,555,492,10155,1,1,-8.5,0,-8.5,0,1,6,45,1,1,0.6501451,60.00456035
2,556,82,2800,2,2,8.5,0,8.5,0,1,5,0,3,1,0.4500225,60.00456035
2,557,456,2655,1,1,-8.5,0,-8.5,0,1,6,45,1,1,0.4333893,60.00456035
2,558,251,8400,2,1,-8.5,0,8.5,0,0,6,45,3,0,0.4333601,60.00456035
2,559,52,1800,2,1,8.5,0,8.5,0,1,6,45,4,1,0.5000204,60.00456035
2,560,51,1700,2,1,-8.5,0,8.5,0,0,5,0,3,1,0.4500616,60.00456035
2,561,215,7200,2,1,-8.5,0,8.5,0,0,6,45,2,1,0.3833467,60.00456035
2,562,97,3200,2,2,8.5,0,-8.5,0,0,5,0,2,1,0.4334024,60.00456035
2,563,513,11755,1,2,8.5,0,-8.5,0,0,6,45,2,1,0.6334005,60.00456035
2,564,65,2300,2,2,-8.5,0,8.5,0,0,6,45,2,1,0.3166744,60.00456035
2,565,61,2200,2,2,8.5,0,-8.5,0,0,5,0,1,1,0.3501361,60.00456035
2,566,220,7500,2,1,8.5,0,8.5,0,1,5,0,1,1,0.3834155,60.00456035
2,567,186,6300,2,2,-8.5,0,-8.5,0,1,6,45,3,1,0.4501303,60.00456035
3,0,204,7000,2,1,-8.5,0,-8.5,0,1,6,0,1,1,0.6334332,59.999664
3,1,34,1000,2,2,-8.5,0,-8.5,0,1,6,0,2,1,0.483403,59.999664
3,2,23,700,2,1,-8.5,0,8.5,0,0,6,0,4,1,0.40002,59.999664
3,3,512,11755,1,1,-8.5,0,-8.5,0,1,6,0,3,1,0.4834852,59.999664
3,4,80,2800,2,1,8.5,0,8.5,0,1,6,0,2,1,0.3334149,59.999664
3,5,248,8400,2,1,8.5,0,8.5,0,1,5,45,3,0,0.3500486,59.999664
3,6,250,8400,2,2,-8.5,0,-8.5,0,1,5,45,3,1,0.4499803,59.999664
3,7,567,17355,1,1,8.5,0,-8.5,0,0,6,0,3,1,0.5667722,59.999664
3,8,89,3000,2,2,-8.5,0,8.5,0,0,5,45,1,1,0.5167354,59.999664
3,9,485,6955,1,2,-8.5,0,8.5,0,0,6,0,1,1,0.5500511,59.999664
3,10,38,1100,2,2,8.5,0,8.5,0,1,6,0,2,1,0.3666467,59.999664
3,11,0,100,2,1,8.5,0,8.5,0,1,5,45,2,0,0.4333239,59.999664
3,12,488,9255,1,1,-8.5,0,-8.5,0,1,5,45,2,1,0.5499997,59.999664
3,13,162,5600,2,2,-8.5,0,-8.5,0,1,6,0,2,1,0.4834213,59.999664
3,14,371,13100,2,1,8.5,0,-8.5,0,0,5,45,2,1,0.4500273,59.999664
3,15,133,4300,2,2,8.5,0,-8.5,0,0,6,0,2,1,0.5508178,59.999664
3,16,486,6955,1,2,-8.5,0,-8.5,0,1,5,45,3,1,0.450069,59.999664
3,17,282,9800,2,2,-8.5,0,-8.5,0,1,5,45,3,1,0.3833554,59.999664
3,18,449,2155,1,2,-8.5,0,8.5,0,0,6,0,1,1,0.3344547,59.999664
3,19,436,455,1,1,8.5,0,8.5,0,1,6,0,4,1,0.3999612,59.999664
3,20,325,11500,2,2,8.5,0,-8.5,0,0,5,45,1,1,0.4000068,59.999664
3,21,177,6100,2,2,-8.5,0,8.5,0,0,6,0,1,1,0.3666964,59.999664
3,22,490,9255,1,2,8.5,0,8.5,0,1,6,0,2,1,0.3506665,59.999664
3,23,18,500,2,2,-8.5,0,-8.5,0,1,5,45,3,1,0.3334426,59.999664
3,24,326,11500,2,2,8.5,0,8.5,0,1,6,0,2,1,0.3500304,59.999664
3,25,480,6855,1,1,8.5,0,8.5,0,1,6,0,4,0,0.4667867,59.999664
3,26,511,10855,1,1,8.5,0,-8.5,0,0,5,45,3,1,0.4500173,59.999664
3,27,313,11000,2,2,-8.5,0,8.5,0,0,5,45,1,1,0.5334543,59.999664
3,28,544,13855,1,1,8.5,0,8.5,0,1,5,45,1,1,0.5682507,59.999664
3,29,398,14300,2,2,8.5,0,8.5,0,1,6,0,1,1,0.4666103,59.999664
3,30,318,11100,2,2,8.5,0,8.5,0,1,6,0,3,1,0.6500628,59.999664
3,31,530,12855,1,2,-8.5,0,-8.5,0,1,5,45,1,1,0.4501358,59.999664
3,32,321,11300,2,2,-8.5,0,8.5,0,0,5,45,4,1,0.5833708,59.999664
3,33,513,11755,1,2,8.5,0,-8.5,0,0,6,0,2,1,0.4333237,59.999664
3,34,93,3100,2,2,8.5,0,-8.5,0,0,5,45,2,1,0.4334228,59.999664
3,35,230,7700,2,2,8.5,0,8.5,0,1,5,45,4,1,0.500017,59.999664
3,36,464,3155,1,1,-8.5,0,-8.5,0,1,5,45,4,1,0.3834669,59.999664
3,37,279,9600,2,1,-8.5,0,8.5,0,0,5,45,1,1,0.4000506,59.999664
3,38,122,4000,2,2,-8.5,0,-8.5,0,1,5,45,1,1,0.3334223,59.999664
3,39,24,800,2,1,8.5,0,8.5,0,1,5,45,3,1,0.416735,59.999664
3,40,545,13855,1,2,-8.5,0,8.5,0,0,6,0,3,1,0.3666885,59.999664
3,41,554,14155,1,2,-8.5,0,-8.5,0,1,5,45,1,1,0.4000555,59.999664
3,42,168,5800,2,1,8.5,0,8.5,0,1,5,45,4,1,0.4334195,59.999664
3,43,348,12400,2,1,-8.5,0,-8.5,0,1,5,45,4,1,0.3020173,59.999664
3,44,258,8700,2,2,-8.5,0,-8.5,0,1,5,45,4,1,0.3167427,59.999664
3,45,432,16200,2,1,8.5,0,8.5,0,1,5,45,3,1,0.4000601,59.999664
3,46,12,400,2,1,-8.5,0,-8.5,0,1,5,45,3,1,0.4001239,59.999664
3,47,414,15200,2,2,8.5,0,8.5,0,1,5,45,1,1,0.4346521,59.999664
3,48,136,4500,2,1,8.5,0,8.5,0,1,6,0,2,1,0.4333748,59.999664
3,49,252,8600,2,1,-8.5,0,-8.5,0,1,6,0,2,1,0.4334232,59.999664
3,50,256,8700,2,1,8.5,0,8.5,0,1,6,0,4,1,0.3334185,59.999664
3,51,354,12500,2,2,-8.5,0,-8.5,0,1,6,0,4,1,0.4667234,59.999664
3,52,437,455,1,2,-8.5,0,8.5,0,0,6,0,1,1,0.7500466,59.999664
3,53,442,1255,1,2,8.5,0,8.5,0,1,6,0,3,1,0.3500589,59.999664
3,54,11,300,2,1,8.5,0,-8.5,0,0,5,45,1,1,0.4000228,59.999664
3,55,440,1255,1,1,-8.5,0,-8.5,0,1,6,0,1,1,0.4849915,59.999664
3,56,566,17355,1,2,-8.5,0,-8.5,0,1,6,0,1,1,0.4000303,59.999664
3,57,551,14055,1,1,-8.5,0,8.5,0,0,5,45,3,1,0.5332899,59.999664
3,58,84,2900,2,1,-8.5,0,-8.5,0,1,5,45,4,1,0.4500704,59.999664
3,59,13,400,2,2,8.5,0,-8.5,0,0,6,0,3,1,0.5183172,59.999664
3,60,459,2655,1,1,8.5,0,-8.5,0,0,5,45,3,1,0.6001183,59.999664
3,61,71,2500,2,1,-8.5,0,8.5,0,0,6,0,1,1,0.5668005,59.999664
3,62,271,9400,2,1,-8.5,0,8.5,0,0,5,45,3,1,0.5000009,59.999664
3,63,540,13255,1,1,8.5,0,8.5,0,1,5,45,3,1,0.4500425,59.999664
3,64,15,400,2,1,-8.5,0,8.5,0,0,5,45,3,1,0.4500447,59.999664
3,65,415,15200,2,1,-8.5,0,8.5,0,0,6,0,1,1,0.4332773,59.999664
3,66,394,14200,2,2,-8.5,0,-8.5,0,1,5,45,4,1,0.3834655,59.999664
3,67,291,10100,2,1,8.5,0,-8.5,0,0,6,0,1,1,0.483295,59.999664
3,68,327,11500,2,1,-8.5,0,8.5,0,0,5,45,1,1,0.5500566,59.999664
3,69,430,16100,2,2,8.5,0,8.5,0,1,5,45,1,1,0.5833518,59.999664
3,70,330,11600,2,2,-8.5,0,-8.5,0,1,5,45,4,1,0.5000168,59.999664
3,71,419,15300,2,1,8.5,0,-8.5,0,0,5,45,2,1,0.4004528,59.999664
3,72,454,2255,1,2,8.5,0,8.5,0,1,5,45,1,1,0.416728,59.999664
3,73,469,3355,1,2,-8.5,0,8.5,0,0,5,45,2,1,0.3851431,59.999664
3,74,303,10700,2,1,-8.5,0,8.5,0,0,5,45,2,1,0.4000699,59.999664
3,75,311,10900,2,1,-8.5,0,8.5,0,0,6,0,4,1,0.4334177,59.999664
3,76,329,11600,2,2,-8.5,0,8.5,0,0,6,0,1,1,0.4833318,59.999664
3,77,467,3155,1,1,-8.5,0,8.5,0,0,5,45,4,1,0.469092,59.999664
3,78,175,6000,2,1,-8.5,0,8.5,0,0,6,0,1,1,0.4167569,59.999664
3,79,445,1855,1,2,-8.5,0,8.5,0,0,5,45,4,1,0.416695,59.999664
3,80,309,10900,2,2,8.5,0,-8.5,0,0,6,0,1,0,0.3001313,59.999664
3,81,328,11600,2,1,8.5,0,8.5,0,1,6,0,2,1,0.3668073,59.999664
3,82,174,6000,2,2,8.5,0,8.5,0,1,5,45,4,1,0.4666538,59.999664
3,83,563,17255,1,1,-8.5,0,8.5,0,0,6,0,4,1,0.3834122,59.999664
3,84,140,4700,2,1,-8.5,0,-8.5,0,1,6,0,2,1,0.483458,59.999664
3,85,202,6900,2,2,-8.5,0,-8.5,0,1,6,0,1,1,0.4001105,59.999664
3,86,526,12555,1,2,8.5,0,8.5,0,1,6,0,1,1,0.3000451,59.999664
3,87,167,5700,2,1,-8.5,0,8.5,0,0,5,45,4,1,0.5507061,59.999664
3,88,96,3200,2,1,8.5,0,8.5,0,1,5,45,1,1,0.5000333,59.999664
3,89,323,11300,2,1,8.5,0,-8.5,0,0,6,0,4,1,0.4187218,59.999664
3,90,429,16100,2,2,8.5,0,-8.5,0,0,5,45,4,1,0.3833142,59.999664
3,91,268,9400,2,1,-8.5,0,-8.5,0,1,6,0,3,1,0.4334275,59.999664
3,92,149,4900,2,2,8.5,0,-8.5,0,0,6,0,1,1,0.5500971,59.999664
3,93,143,4700,2,1,-8.5,0,8.5,0,0,6,0,2,1,0.3333885,59.999664
3,94,47,1600,2,1,-8.5,0,8.5,0,0,6,0,3,1,0.3168014,59.999664
3,95,185,6300,2,2,-8.5,0,8.5,0,0,6,0,2,1,0.3667913,59.999664
3,96,196,6800,2,1,-8.5,0,-8.5,0,1,5,45,3,1,0.3834346,59.999664
3,97,306,10800,2,2,-8.5,0,-8.5,0,1,6,0,1,0,0.3167288,59.999664
3,98,335,11700,2,1,-8.5,0,8.5,0,0,6,0,2,1,0.3180472,59.999664
3,99,534,13055,1,2,-8.5,0,-8.5,0,1,5,45,3,1,0.4500369,59.999664
3,100,183,6200,2,1,-8.5,0,8.5,0,0,6,0,1,1,0.3167749,59.999664
3,101,251,8400,2,1,8.5,0,-8.5,0,0,5,45,4,1,0.4500748,59.999664
3,102,225,7600,2,2,-8.5,0,8.5,0,0,6,0,1,1,0.3334026,59.999664
3,103,397,14300,2,2,8.5,0,-8.5,0,0,5,45,3,1,0.3667828,59.999664
3,104,457,2655,1,2,-8.5,0,8.5,0,0,6,0,3,1,0.3335454,59.999664
3,105,380,13600,2,1,-8.5,0,-8.5,0,1,6,0,1,1,0.5500239,59.999664
3,106,417,15300,2,2,-8.5,0,8.5,0,0,6,0,1,1,0.3833866,59.999664
3,107,489,9255,1,2,8.5,0,-8.5,0,0,6,0,1,0,0.3500542,59.999664
3,108,193,6600,2,2,-8.5,0,8.5,0,0,6,0,2,1,0.3333555,59.999664
3,109,150,4900,2,2,8.5,0,8.5,0,1,5,45,1,1,0.4850344,59.999664
3,110,358,12600,2,2,8.5,0,8.5,0,1,6,0,2,1,0.3666802,59.999664
3,111,508,10855,1,1,8.5,0,8.5,0,1,5,45,3,1,0.4167032,59.999664
3,112,523,12355,1,1,8.5,0,-8.5,0,0,5,45,1,1,0.4333598,59.999664
3,113,406,14600,2,2,8.5,0,8.5,0,1,5,45,1,1,0.4667512,59.999664
3,114,9,300,2,2,-8.5,0,8.5,0,0,6,0,4,1,0.3500362,59.999664
3,115,421,15700,2,2,8.5,0,-8.5,0,0,5,45,4,1,0.3332996,59.999664
3,116,17,500,2,2,-8.5,0,8.5,0,0,6,0,4,1,0.3166926,59.999664
3,117,6,200,2,2,8.5,0,8.5,0,1,6,0,4,1,0.3667597,59.999664
3,118,461,2955,1,2,-8.5,0,8.5,0,0,6,0,2,1,0.3500375,59.999664
3,119,507,10555,1,1,8.5,0,-8.5,0,0,6,0,2,1,0.4667487,59.999664
3,120,564,17355,1,1,8.5,0,8.5,0,1,6,0,1,1,0.36667,59.999664
3,121,346,12200,2,2,-8.5,0,-8.5,0,1,5,45,4,1,0.3333998,59.999664
3,122,205,7000,2,2,8.5,0,-8.5,0,0,6,0,2,1,0.5000447,59.999664
3,123,273,9500,2,2,-8.5,0,8.5,0,0,6,0,2,1,0.366718,59.999664
3,124,194,6600,2,2,-8.5,0,-8.5,0,1,5,45,4,1,0.4167732,59.999664
3,125,295,10500,2,1,-8.5,0,8.5,0,0,6,0,1,1,0.4167825,59.999664
3,126,92,3100,2,1,-8.5,0,-8.5,0,1,5,45,1,1,0.4167809,59.999664
3,127,351,12400,2,1,-8.5,0,8.5,0,0,6,0,3,1,0.2667025,59.999664
3,128,195,6600,2,1,8.5,0,-8.5,0,0,5,45,3,0,0.3026811,59.999664
3,129,281,9800,2,2,-8.5,0,8.5,0,0,6,0,1,1,0.3500402,59.999664
3,130,403,14400,2,1,8.5,0,-8.5,0,0,5,45,3,1,0.3834145,59.999664
3,131,447,1855,1,1,8.5,0,-8.5,0,0,6,0,2,1,0.3333753,59.999664
3,132,182,6200,2,2,8.5,0,8.5,0,1,6,0,4,1,0.3666451,59.999664
3,133,324,11500,2,1,-8.5,0,-8.5,0,1,5,45,2,1,0.2839643,59.999664
3,134,264,9300,2,1,8.5,0,8.5,0,1,5,45,4,0,0.3000313,59.999664
3,135,277,9600,2,2,8.5,0,-8.5,0,0,5,45,1,1,0.466617,59.999664
3,136,7,200,2,1,-8.5,0,8.5,0,0,5,45,3,1,0.4509051,59.999664
3,137,111,3600,2,1,-8.5,0,8.5,0,0,6,0,2,1,0.3667821,59.999664
3,138,561,17255,1,2,8.5,0,-8.5,0,0,5,45,4,1,0.4167772,59.999664
3,139,132,4300,2,1,-8.5,0,-8.5,0,1,5,45,3,1,0.5166626,59.999664
3,140,477,6355,1,2,8.5,0,-8.5,0,0,6,0,4,1,0.4010283,59.999664
3,141,340,12100,2,1,-8.5,0,-8.5,0,1,6,0,1,1,0.4833394,59.999664
3,142,293,10500,2,2,8.5,0,-8.5,0,0,6,0,4,1,0.4000105,59.999664
3,143,521,12355,1,2,-8.5,0,8.5,0,0,5,45,3,0,0.3500553,59.999664
3,144,20,700,2,1,-8.5,0,-8.5,0,1,6,0,1,1,0.41666,59.999664
3,145,418,15300,2,2,-8.5,0,-8.5,0,1,5,45,3,1,0.4501279,59.999664
3,146,405,14600,2,2,8.5,0,-8.5,0,0,6,0,1,1,0.3333504,59.999664
3,147,75,2600,2,1,8.5,0,-8.5,0,0,6,0,1,1,0.4167877,59.999664
3,148,142,4700,2,2,8.5,0,8.5,0,1,5,45,3,1,0.4333606,59.999664
3,149,210,7100,2,2,-8.5,0,-8.5,0,1,6,0,4,1,0.3167574,59.999664
3,150,32,1000,2,1,8.5,0,8.5,0,1,6,0,2,1,0.250036,59.999664
3,151,367,12900,2,1,-8.5,0,8.5,0,0,5,45,4,1,0.5001153,59.999664
3,152,127,4100,2,1,-8.5,0,8.5,0,0,6,0,1,1,0.3334178,59.999664
3,153,4,200,2,1,-8.5,0,-8.5,0,1,6,0,4,1,0.3667968,59.999664
3,154,138,4500,2,2,-8.5,0,-8.5,0,1,6,0,1,1,0.4168107,59.999664
3,155,243,8100,2,1,8.5,0,-8.5,0,0,6,0,2,1,0.4334228,59.999664
3,156,560,17255,1,1,-8.5,0,-8.5,0,1,5,45,3,1,0.3167253,59.999664
3,157,379,13400,2,1,8.5,0,-8.5,0,0,5,45,4,1,0.4667465,59.999664
3,158,203,6900,2,1,8.5,0,-8.5,0,0,6,0,1,0,0.6501125,59.999664
3,159,26,800,2,2,-8.5,0,-8.5,0,1,6,0,1,1,0.4501196,59.999664
3,160,465,3155,1,2,8.5,0,-8.5,0,0,6,0,3,1,0.4000906,59.999664
3,161,85,2900,2,2,8.5,0,-8.5,0,0,6,0,1,1,0.4333646,59.999664
3,162,543,13255,1,1,8.5,0,-8.5,0,0,6,0,4,1,0.6000348,59.999664
3,163,255,8600,2,1,-8.5,0,8.5,0,0,5,45,3,1,0.4834218,59.999664
3,164,381,13600,2,2,8.5,0,-8.5,0,0,6,0,4,1,0.4334101,59.999664
3,165,549,14055,1,2,8.5,0,-8.5,0,0,6,0,2,1,0.4833642,59.999664
3,166,99,3200,2,1,8.5,0,-8.5,0,0,6,0,3,1,0.5175325,59.999664
3,167,199,6800,2,1,-8.5,0,8.5,0,0,6,0,2,1,0.5000546,59.999664
3,168,189,6500,2,2,8.5,0,-8.5,0,0,5,45,3,1,0.4667689,59.999664
3,169,90,3000,2,2,-8.5,0,-8.5,0,1,6,0,1,1,0.4333453,59.999664
3,170,198,6800,2,2,8.5,0,8.5,0,1,6,0,1,1,0.3667213,59.999664
3,171,355,12500,2,1,8.5,0,-8.5,0,0,6,0,2,1,0.60013,59.999664
3,172,82,2800,2,2,-8.5,0,-8.5,0,1,6,0,3,1,0.2846962,59.999664
3,173,301,10700,2,2,8.5,0,-8.5,0,0,6,0,4,1,0.2501252,59.999664
3,174,242,8100,2,2,-8.5,0,-8.5,0,1,5,45,3,1,0.516667,59.999664
3,175,164,5700,2,1,-8.5,0,-8.5,0,1,5,45,1,1,0.5167148,59.999664
3,176,263,9100,2,1,-8.5,0,8.5,0,0,5,45,4,0,0.3501094,59.999664
3,177,422,15700,2,2,8.5,0,8.5,0,1,6,0,3,1,0.4167589,59.999664
3,178,240,8100,2,1,8.5,0,8.5,0,1,5,45,3,1,0.4500566,59.999664
3,179,499,10355,1,1,8.5,0,-8.5,0,0,5,45,3,1,0.4334606,59.999664
3,180,192,6600,2,1,8.5,0,8.5,0,1,6,0,3,1,0.3167876,59.999664
3,181,493,10155,1,2,-8.5,0,8.5,0,0,5,45,2,1,0.4167812,59.999664
3,182,163,5600,2,1,8.5,0,-8.5,0,0,5,45,4,1,0.3343367,59.999664
3,183,495,10155,1,1,8.5,0,-8.5,0,0,6,0,3,0,0.3168013,59.999664
3,184,191,6500,2,1,-8.5,0,8.5,0,0,6,0,1,1,0.566767,59.999664
3,185,482,6855,1,2,-8.5,0,-8.5,0,1,6,0,2,1,0.4999511,59.999664
3,186,478,6355,1,2,8.5,0,8.5,0,1,6,0,3,1,0.3667251,59.999664
3,187,91,3000,2,1,8.5,0,-8.5,0,0,5,45,2,1,0.4166654,59.999664
3,188,374,13200,2,2,8.5,0,8.5,0,1,5,45,4,1,0.4333634,59.999664
3,189,438,455,1,2,-8.5,0,-8.5,0,1,5,45,4,0,0.3167116,59.999664
3,190,558,14355,1,2,-8.5,0,-8.5,0,1,5,45,3,1,0.4681491,59.999664
3,191,334,11700,2,2,8.5,0,8.5,0,1,6,0,4,1,0.3667459,59.999664
3,192,87,2900,2,1,-8.5,0,8.5,0,0,5,45,1,1,0.5167101,59.999664
3,193,219,7300,2,1,8.5,0,-8.5,0,0,5,45,2,1,0.5334409,59.999664
3,194,455,2255,1,1,-8.5,0,8.5,0,0,5,45,1,1,0.5001242,59.999664
3,195,50,1700,2,2,-8.5,0,-8.5,0,1,6,0,4,1,0.5834091,59.999664
3,196,114,3700,2,2,-8.5,0,-8.5,0,1,5,45,3,1,0.4667901,59.999664
3,197,131,4200,2,1,8.5,0,-8.5,0,0,5,45,4,1,0.4666903,59.999664
3,198,227,7600,2,1,8.5,0,-8.5,0,0,6,0,2,1,0.433473,59.999664
3,199,339,12000,2,1,8.5,0,-8.5,0,0,5,45,1,1,0.4500224,59.999664
3,200,466,3155,1,2,8.5,0,8.5,0,1,6,0,3,1,0.4666266,59.999664
3,201,231,7700,2,1,-8.5,0,8.5,0,0,6,0,1,1,0.4844388,59.999664
3,202,215,7200,2,1,-8.5,0,8.5,0,0,6,0,2,1,0.4334229,59.999664
3,203,353,12500,2,2,-8.5,0,8.5,0,0,6,0,1,1,0.3334151,59.999664
3,204,559,14355,1,1,8.5,0,-8.5,0,0,5,45,3,1,0.3500314,59.999664
3,205,270,9400,2,2,8.5,0,8.5,0,1,5,45,3,1,0.6167415,59.999664
3,206,134,4300,2,2,8.5,0,8.5,0,1,5,45,4,0,0.5000791,59.999664
3,207,95,3100,2,1,-8.5,0,8.5,0,0,5,45,4,1,0.516622,59.999664
3,208,510,10855,1,2,-8.5,0,-8.5,0,1,6,0,1,1,0.4673064,59.999664
3,209,541,13255,1,2,-8.5,0,8.5,0,0,5,45,1,1,0.6334264,59.999664
3,210,433,16200,2,2,-8.5,0,8.5,0,0,6,0,2,1,0.4834589,59.999664
3,211,536,13155,1,1,-8.5,0,-8.5,0,1,5,45,4,1,0.4834448,59.999664
3,212,382,13600,2,2,8.5,0,8.5,0,1,5,45,3,1,0.8833202,59.999664
3,213,171,5800,2,1,8.5,0,-8.5,0,0,6,0,4,1,0.4000296,59.999664
3,214,66,2300,2,2,-8.5,0,-8.5,0,1,5,45,2,1,0.4500554,59.999664
3,215,67,2300,2,1,8.5,0,-8.5,0,0,6,0,1,1,0.4833922,59.999664
3,216,388,14100,2,1,-8.5,0,-8.5,0,1,5,45,4,1,0.416738,59.999664
3,217,274,9500,2,2,-8.5,0,-8.5,0,1,6,0,3,1,0.4500386,59.999664
3,218,517,12155,1,2,-8.5,0,8.5,0,0,6,0,1,1,0.3667324,59.999664
3,219,61,2200,2,2,8.5,0,-8.5,0,0,6,0,4,1,0.3834456,59.999664
3,220,483,6855,1,1,8.5,0,-8.5,0,0,5,45,3,1,0.3500403,59.999664
3,221,56,2000,2,1,8.5,0,8.5,0,1,5,45,1,1,0.3833725,59.999664
3,222,278,9600,2,2,8.5,0,8.5,0,1,6,0,1,0,0.3167495,59.999664
3,223,402,14400,2,2,-8.5,0,-8.5,0,1,5,45,1,1,0.6000207,59.999664
3,224,357,12600,2,2,8.5,0,-8.5,0,0,6,0,2,1,0.4023234,59.999664
3,225,2,100,2,2,-8.5,0,-8.5,0,1,5,45,2,1,0.4845268,59.999664
3,226,344,12200,2,1,8.5,0,8.5,0,1,5,45,3,1,0.5000418,59.999664
3,227,159,5500,2,1,-8.5,0,8.5,0,0,6,0,1,1,0.2667749,59.999664
3,228,148,4900,2,1,-8.5,0,-8.5,0,1,5,45,1,1,0.3501194,59.999664
3,229,79,2700,2,1,-8.5,0,8.5,0,0,6,0,2,1,0.3001042,59.999664
3,230,169,5800,2,2,-8.5,0,8.5,0,0,6,0,2,1,0.3167739,59.999664
3,231,471,3355,1,1,8.5,0,-8.5,0,0,6,0,3,0,0.3166521,59.999664
3,232,456,2655,1,1,8.5,0,8.5,0,1,5,45,3,0,0.3501304,59.999664
3,233,565,17355,1,2,-8.5,0,8.5,0,0,5,45,3,1,0.6334092,59.999664
3,234,233,7900,2,2,-8.5,0,8.5,0,0,5,45,1,1,0.5166752,59.999664
3,235,393,14200,2,2,-8.5,0,8.5,0,0,5,45,3,1,0.6833502,59.999664
3,236,160,5600,2,1,8.5,0,8.5,0,1,5,45,4,1,0.4167649,59.999664
3,237,452,2255,1,1,-8.5,0,-8.5,0,1,5,45,2,1,0.3000549,59.999664
3,238,366,12900,2,2,8.5,0,8.5,0,1,6,0,2,1,0.3512914,59.999664
3,239,474,4155,1,2,-8.5,0,-8.5,0,1,6,0,1,1,0.5000343,59.999664
3,240,141,4700,2,2,8.5,0,-8.5,0,0,6,0,2,1,0.5667845,59.999664
3,241,378,13400,2,2,-8.5,0,-8.5,0,1,5,45,2,1,0.4000216,59.999664
3,242,317,11100,2,2,8.5,0,-8.5,0,0,6,0,2,1,0.6170718,59.999664
3,243,460,2955,1,1,8.5,0,8.5,0,1,6,0,2,1,0.3333977,59.999664
3,244,368,13100,2,1,8.5,0,8.5,0,1,5,45,1,0,0.266689,59.999664
3,245,562,17255,1,2,8.5,0,8.5,0,1,6,0,2,1,0.4167133,59.999664
3,246,201,6900,2,2,-8.5,0,8.5,0,0,5,45,2,1,0.5666911,59.999664
3,247,286,10000,2,2,8.5,0,8.5,0,1,6,0,2,1,0.3666553,59.999664
3,248,206,7000,2,2,8.5,0,8.5,0,1,5,45,4,1,0.4001321,59.999664
3,249,524,12555,1,1,-8.5,0,-8.5,0,1,6,0,3,1,0.6666567,59.999664
3,250,234,7900,2,2,-8.5,0,-8.5,0,1,5,45,2,1,0.4333861,59.999664
3,251,207,7000,2,1,-8.5,0,8.5,0,0,6,0,4,1,0.3667168,59.999664
3,252,94,3100,2,2,8.5,0,8.5,0,1,6,0,2,1,0.416784,59.999664
3,253,491,9255,1,1,-8.5,0,8.5,0,0,5,45,3,1,0.5188488,59.999664
3,254,246,8300,2,2,8.5,0,8.5,0,1,6,0,3,1,0.3834658,59.999664
3,255,83,2800,2,1,8.5,0,-8.5,0,0,6,0,3,0,0.316799,59.999664
3,256,55,1800,2,1,-8.5,0,8.5,0,0,6,0,2,1,0.5667853,59.999664
3,257,14,400,2,2,8.5,0,8.5,0,1,6,0,1,1,0.4833532,59.999664
3,258,188,6500,2,1,-8.5,0,-8.5,0,1,6,0,4,1,0.500139,59.999664
3,259,548,14055,1,1,-8.5,0,-8.5,0,1,6,0,3,1,0.5167284,59.999664
3,260,538,13155,1,2,8.5,0,8.5,0,1,5,45,3,1,0.4501217,59.999664
3,261,245,8300,2,2,8.5,0,-8.5,0,0,6,0,2,1,0.5167818,59.999664
3,262,404,14600,2,1,-8.5,0,-8.5,0,1,5,45,4,1,0.3500374,59.999664
3,263,63,2200,2,1,-8.5,0,8.5,0,0,6,0,2,1,0.4001142,59.999664
3,264,145,4800,2,2,-8.5,0,8.5,0,0,5,45,3,1,0.5500443,59.999664
3,265,223,7500,2,1,-8.5,0,8.5,0,0,6,0,3,1,0.38343,59.999664
3,266,520,12355,1,1,8.5,0,8.5,0,1,6,0,4,1,0.4501235,59.999664
3,267,284,10000,2,1,-8.5,0,-8.5,0,1,5,45,3,1,0.31671,59.999664
3,268,166,5700,2,2,8.5,0,8.5,0,1,6,0,1,1,0.4332923,59.999664
3,269,412,15200,2,1,-8.5,0,-8.5,0,1,6,0,3,0,0.4667819,59.999664
3,270,247,8300,2,1,-8.5,0,8.5,0,0,6,0,4,1,0.5167866,59.999664
3,271,86,2900,2,2,8.5,0,8.5,0,1,6,0,3,1,0.4002204,59.999664
3,272,98,3200,2,2,-8.5,0,-8.5,0,1,5,45,3,1,0.4001307,59.999664
3,273,88,3000,2,1,8.5,0,8.5,0,1,5,45,1,1,0.666691,59.999664
3,274,304,10800,2,1,8.5,0,8.5,0,1,6,0,2,1,0.8333967,59.999664
3,275,352,12500,2,1,8.5,0,8.5,0,1,5,45,4,1,0.4333623,59.999664
3,276,209,7100,2,2,-8.5,0,8.5,0,0,6,0,4,1,0.466641,59.999664
3,277,139,4500,2,1,8.5,0,-8.5,0,0,6,0,4,1,0.8001248,59.999664
3,278,126,4100,2,2,8.5,0,8.5,0,1,5,45,4,1,0.4667898,59.999664
3,279,300,10700,2,1,-8.5,0,-8.5,0,1,5,45,4,1,0.5000058,59.999664
3,280,458,2655,1,2,-8.5,0,-8.5,0,1,6,0,3,1,0.4501339,59.999664
3,281,375,13200,2,1,-8.5,0,8.5,0,0,6,0,2,1,0.4999635,59.999664
3,282,59,2000,2,1,8.5,0,-8.5,0,0,6,0,3,0,0.2668149,59.999664
3,283,154,5200,2,2,-8.5,0,-8.5,0,1,6,0,1,0,0.6333705,59.999664
3,284,35,1000,2,1,8.5,0,-8.5,0,0,5,45,4,1,0.5000086,59.999664
3,285,472,4155,1,1,8.5,0,8.5,0,1,6,0,4,1,0.3501227,59.999664
3,286,37,1100,2,2,8.5,0,-8.5,0,0,5,45,4,1,0.4500016,59.999664
3,287,43,1300,2,1,8.5,0,-8.5,0,0,6,0,2,1,0.6167099,59.999664
3,288,226,7600,2,2,-8.5,0,-8.5,0,1,5,45,1,1,0.4333558,59.999664
3,289,529,12855,1,2,-8.5,0,8.5,0,0,5,45,2,0,0.4333908,59.999664
3,290,320,11300,2,1,8.5,0,8.5,0,1,5,45,3,1,0.5000263,59.999664
3,291,211,7100,2,1,8.5,0,-8.5,0,0,5,45,2,1,0.4502861,59.999664
3,292,165,5700,2,2,8.5,0,-8.5,0,0,6,0,1,1,0.4667019,59.999664
3,293,241,8100,2,2,-8.5,0,8.5,0,0,6,0,2,1,0.4000233,59.999664
3,294,532,13055,1,1,8.5,0,8.5,0,1,6,0,2,1,0.3666631,59.999664
3,295,124,4100,2,1,-8.5,0,-8.5,0,1,5,45,3,1,0.4194898,59.999664
3,296,505,10555,1,2,-8.5,0,8.5,0,0,6,0,3,1,0.4667614,59.999664
3,297,235,7900,2,1,8.5,0,-8.5,0,0,6,0,4,1,0.7834138,59.999664
3,298,129,4200,2,2,-8.5,0,8.5,0,0,5,45,2,1,0.5001286,59.999664
3,299,527,12555,1,1,-8.5,0,8.5,0,0,6,0,4,1,0.3834043,59.999664
3,300,54,1800,2,2,8.5,0,8.5,0,1,6,0,3,1,0.3168026,59.999664
3,301,446,1855,1,2,-8.5,0,-8.5,0,1,5,45,2,1,0.3501184,59.999664
3,302,338,12000,2,2,-8.5,0,-8.5,0,1,5,45,3,1,0.2834044,59.999664
3,303,552,14155,1,1,8.5,0,8.5,0,1,6,0,4,1,0.2848323,59.999664
3,304,176,6100,2,1,8.5,0,8.5,0,1,6,0,4,1,0.2838645,59.999664
3,305,104,3500,2,1,8.5,0,8.5,0,1,6,0,1,1,0.3001377,59.999664
3,306,265,9300,2,2,-8.5,0,8.5,0,0,5,45,3,0,0.4334589,59.999664
3,307,389,14100,2,2,8.5,0,-8.5,0,0,6,0,4,1,0.983396,59.999664
3,308,178,6100,2,2,-8.5,0,-8.5,0,1,6,0,3,1,0.4833743,59.999664
3,309,463,2955,1,1,8.5,0,-8.5,0,0,6,0,1,1,0.4501173,59.999664
3,310,331,11600,2,1,8.5,0,-8.5,0,0,5,45,1,1,0.5333554,59.999664
3,311,101,3300,2,2,8.5,0,-8.5,0,0,5,45,4,1,0.3500454,59.999664
3,312,373,13200,2,2,8.5,0,-8.5,0,0,6,0,3,0,0.3334253,59.999664
3,313,254,8600,2,2,8.5,0,8.5,0,1,5,45,1,1,0.5167905,59.999664
3,314,302,10700,2,2,8.5,0,8.5,0,1,6,0,4,1,0.4666187,59.999664
3,315,31,900,2,1,-8.5,0,8.5,0,0,6,0,3,1,0.4167289,59.999664
3,316,347,12200,2,1,8.5,0,-8.5,0,0,5,45,4,1,0.3834601,59.999664
3,317,360,12700,2,1,8.5,0,8.5,0,1,5,45,3,0,0.4167176,59.999664
3,318,475,4155,1,1,8.5,0,-8.5,0,0,6,0,1,0,0.7667036,59.999664
3,319,228,7700,2,1,-8.5,0,-8.5,0,1,5,45,1,1,0.5342935,59.999664
3,320,369,13100,2,2,-8.5,0,8.5,0,0,6,0,2,1,0.4000415,59.999664
3,321,81,2800,2,2,-8.5,0,8.5,0,0,5,45,3,1,0.4500382,59.999664
3,322,170,5800,2,2,-8.5,0,-8.5,0,1,5,45,1,1,0.4833275,59.999664
3,323,214,7200,2,2,8.5,0,8.5,0,1,5,45,4,1,0.5000431,59.999664
3,324,515,11755,1,1,-8.5,0,8.5,0,0,6,0,2,1,0.5167186,59.999664
3,325,468,3355,1,1,8.5,0,8.5,0,1,6,0,2,1,0.4168022,59.999664
3,326,62,2200,2,2,8.5,0,8.5,0,1,5,45,2,1,0.4668497,59.999664
3,327,224,7600,2,1,8.5,0,8.5,0,1,5,45,3,1,0.4167218,59.999664
3,328,535,13055,1,1,8.5,0,-8.5,0,0,6,0,3,1,0.3833555,59.999664
3,329,186,6300,2,2,-8.5,0,-8.5,0,1,5,45,3,1,0.4333849,59.999664
3,330,448,2155,1,1,8.5,0,8.5,0,1,6,0,4,1,0.3001301,59.999664
3,331,546,13855,1,2,-8.5,0,-8.5,0,1,5,45,4,1,0.3500415,59.999664
3,332,411,15000,2,1,8.5,0,-8.5,0,0,5,45,4,1,0.4342467,59.999664
3,333,407,14600,2,1,-8.5,0,8.5,0,0,5,45,2,1,0.6000247,59.999664
3,334,260,9100,2,1,-8.5,0,-8.5,0,1,5,45,1,1,0.3501298,59.999664
3,335,77,2700,2,2,8.5,0,-8.5,0,0,5,45,4,1,0.4500036,59.999664
3,336,423,15700,2,1,-8.5,0,8.5,0,0,5,45,4,1,0.4001324,59.999664
3,337,237,8000,2,2,8.5,0,-8.5,0,0,5,45,4,1,0.4334139,59.999664
3,338,537,13155,1,2,8.5,0,-8.5,0,0,5,45,2,1,0.3500458,59.999664
3,339,519,12155,1,1,8.5,0,-8.5,0,0,5,45,4,1,0.3334077,59.999664
3,340,123,4000,2,1,8.5,0,-8.5,0,0,6,0,1,1,0.4834047,59.999664
3,341,40,1300,2,1,8.5,0,8.5,0,1,6,0,2,1,0.3666575,59.999664
3,342,431,16100,2,1,-8.5,0,8.5,0,0,5,45,4,1,0.4667539,59.999664
3,343,316,11100,2,1,-8.5,0,-8.5,0,1,6,0,2,1,0.433364,59.999664
3,344,105,3500,2,2,-8.5,0,8.5,0,0,5,45,1,1,0.4499747,59.999664
3,345,244,8300,2,1,-8.5,0,-8.5,0,1,6,0,1,1,0.4333619,59.999664
3,346,336,12000,2,1,8.5,0,8.5,0,1,6,0,1,0,0.4000269,59.999664
3,347,462,2955,1,2,-8.5,0,-8.5,0,1,6,0,2,1,0.4667541,59.999664
3,348,307,10800,2,1,8.5,0,-8.5,0,0,6,0,2,1,0.4666459,59.999664
3,349,514,11755,1,2,8.5,0,8.5,0,1,6,0,1,1,0.4500368,59.999664
3,350,359,12600,2,1,-8.5,0,8.5,0,0,6,0,3,1,0.3500225,59.999664
3,351,212,7200,2,1,-8.5,0,-8.5,0,1,5,45,3,1,0.4001092,59.999664
3,352,481,6855,1,2,-8.5,0,8.5,0,0,5,45,2,1,0.4669179,59.999664
3,353,53,1800,2,2,8.5,0,-8.5,0,0,6,0,2,1,0.3334459,59.999664
3,354,267,9300,2,1,8.5,0,-8.5,0,0,6,0,1,1,0.3333735,59.999664
3,355,425,15800,2,2,-8.5,0,8.5,0,0,5,45,3,1,0.5004461,59.999664
3,356,190,6500,2,2,8.5,0,8.5,0,1,6,0,3,1,0.8500512,59.999664
3,357,78,2700,2,2,8.5,0,8.5,0,1,6,0,1,1,0.3833603,59.999664
3,358,341,12100,2,2,8.5,0,-8.5,0,0,6,0,2,1,0.4500218,59.999664
3,359,557,14355,1,2,-8.5,0,8.5,0,0,6,0,1,1,0.3666973,59.999664
3,360,377,13400,2,2,-8.5,0,8.5,0,0,6,0,3,1,0.3184396,59.999664
3,361,312,11000,2,1,8.5,0,8.5,0,1,6,0,2,1,0.2842021,59.999664
3,362,496,10355,1,1,8.5,0,8.5,0,1,6,0,3,1,0.3333831,59.999664
3,363,155,5200,2,1,8.5,0,-8.5,0,0,5,45,2,0,0.3001191,59.999664
3,364,60,2200,2,1,-8.5,0,-8.5,0,1,5,45,4,1,0.4845347,59.999664
3,365,285,10000,2,2,8.5,0,-8.5,0,0,5,45,2,1,0.4833727,59.999664
3,366,208,7100,2,1,8.5,0,8.5,0,1,6,0,4,1,0.4167402,59.999664
3,367,370,13100,2,2,-8.5,0,-8.5,0,1,5,45,1,1,0.3499727,59.999664
3,368,276,9600,2,1,-8.5,0,-8.5,0,1,6,0,4,1,0.3667006,59.999664
3,369,315,11000,2,1,8.5,0,-8.5,0,0,6,0,4,0,0.4000278,59.999664
3,370,3,100,2,1,8.5,0,-8.5,0,0,6,0,1,1,0.6834141,59.999664
3,371,179,6100,2,1,8.5,0,-8.5,0,0,6,0,3,1,0.4834309,59.999664
3,372,333,11700,2,2,8.5,0,-8.5,0,0,5,45,3,0,0.4833766,59.999664
3,373,516,12155,1,1,8.5,0,8.5,0,1,5,45,2,1,0.549982,59.999664
3,374,528,12855,1,1,8.5,0,8.5,0,1,5,45,3,1,0.4500379,59.999664
3,375,106,3500,2,2,-8.5,0,-8.5,0,1,5,45,3,1,0.4666692,59.999664
3,376,120,4000,2,1,8.5,0,8.5,0,1,5,45,1,1,0.4500358,59.999664
3,377,25,800,2,2,-8.5,0,8.5,0,0,5,45,2,1,0.4500211,59.999664
3,378,157,5500,2,2,8.5,0,-8.5,0,0,5,45,3,1,0.3666652,59.999664
3,379,97,3200,2,2,-8.5,0,8.5,0,0,6,0,2,1,0.466643,59.999664
3,380,441,1255,1,2,8.5,0,-8.5,0,0,5,45,3,1,0.3511108,59.999664
3,381,501,10455,1,2,8.5,0,-8.5,0,0,5,45,3,1,0.4000627,59.999664
3,382,473,4155,1,2,-8.5,0,8.5,0,0,5,45,2,1,0.5167317,59.999664
3,383,332,11700,2,1,-8.5,0,-8.5,0,1,5,45,2,1,0.4501622,59.999664
3,384,218,7300,2,2,-8.5,0,-8.5,0,1,6,0,3,1,0.6167723,59.999664
3,385,68,2500,2,1,-8.5,0,-8.5,0,1,5,45,3,1,0.3667842,59.999664
3,386,153,5200,2,2,-8.5,0,8.5,0,0,5,45,4,1,0.5847484,59.999664
3,387,249,8400,2,2,-8.5,0,8.5,0,0,5,45,1,1,0.366687,59.999664
3,388,372,13200,2,1,-8.5,0,-8.5,0,1,6,0,2,1,0.4666297,59.999664
3,389,390,14100,2,2,8.5,0,8.5,0,1,6,0,1,0,0.3334407,59.999664
3,390,470,3355,1,2,-8.5,0,-8.5,0,1,5,45,4,1,0.4500911,59.999664
3,391,424,15800,2,1,8.5,0,8.5,0,1,6,0,4,1,0.4501329,59.999664
3,392,349,12400,2,2,8.5,0,-8.5,0,0,5,45,1,1,0.453031,59.999664
3,393,181,6200,2,2,8.5,0,-8.5,0,0,5,45,4,1,0.4834628,59.999664
3,394,400,14400,2,1,8.5,0,8.5,0,1,5,45,3,1,0.3834655,59.999664
3,395,74,2600,2,2,-8.5,0,-8.5,0,1,6,0,2,1,0.383364,59.999664
3,396,451,2155,1,1,8.5,0,-8.5,0,0,6,0,1,1,0.3512286,59.999664
3,397,542,13255,1,2,-8.5,0,-8.5,0,1,5,45,4,1,0.4500261,59.999664
3,398,272,9500,2,1,8.5,0,8.5,0,1,5,45,4,1,0.5333816,59.999664
3,399,289,10100,2,2,-8.5,0,8.5,0,0,6,0,3,1,0.3354622,59.999664
3,400,522,12355,1,2,-8.5,0,-8.5,0,1,6,0,1,1,0.4833674,59.999664
3,401,428,16100,2,1,-8.5,0,-8.5,0,1,5,45,3,1,0.4167746,59.999664
3,402,118,3800,2,2,8.5,0,8.5,0,1,6,0,1,0,0.366706,59.999664
3,403,76,2700,2,1,-8.5,0,-8.5,0,1,5,45,2,1,0.4834086,59.999664
3,404,184,6300,2,1,8.5,0,8.5,0,1,6,0,3,1,0.3167484,59.999664
3,405,283,9800,2,1,8.5,0,-8.5,0,0,6,0,2,0,0.3167663,59.999664
3,406,310,10900,2,2,8.5,0,8.5,0,1,5,45,4,1,0.5018516,59.999664
3,407,137,4500,2,2,-8.5,0,8.5,0,0,6,0,3,1,0.3500136,59.999664
3,408,497,10355,1,2,-8.5,0,8.5,0,0,5,45,1,0,0.3167544,59.999664
3,409,102,3300,2,2,8.5,0,8.5,0,1,6,0,4,1,0.2834655,59.999664
3,410,52,1800,2,1,-8.5,0,-8.5,0,1,6,0,3,1,0.3839618,59.999664
3,411,257,8700,2,2,-8.5,0,8.5,0,0,5,45,4,1,0.4500214,59.999664
3,412,550,14055,1,2,8.5,0,8.5,0,1,5,45,4,1,0.5501172,59.999664
3,413,28,900,2,1,-8.5,0,-8.5,0,1,5,45,1,1,0.4666464,59.999664
3,414,16,500,2,1,8.5,0,8.5,0,1,6,0,2,1,0.500004,59.999664
3,415,217,7300,2,2,-8.5,0,8.5,0,0,5,45,1,1,0.4667391,59.999664
3,416,108,3600,2,1,-8.5,0,-8.5,0,1,5,45,2,1,0.3834049,59.999664
3,417,450,2155,1,2,-8.5,0,-8.5,0,1,5,45,3,1,0.333366,59.999664
3,418,51,1700,2,1,8.5,0,-8.5,0,0,6,0,4,1,0.4000471,59.999664
3,419,113,3700,2,2,-8.5,0,8.5,0,0,5,45,4,1,0.5667742,59.999664
3,420,269,9400,2,2,8.5,0,-8.5,0,0,6,0,1,1,0.4000388,59.999664
3,421,115,3700,2,1,8.5,0,-8.5,0,0,5,45,2,1,0.3679439,59.999664
3,422,49,1700,2,2,-8.5,0,8.5,0,0,5,45,4,1,0.5500213,59.999664
3,423,107,3500,2,1,8.5,0,-8.5,0,0,6,0,3,1,0.4334043,59.999664
3,424,130,4200,2,2,-8.5,0,-8.5,0,1,5,45,2,1,0.3834597,59.999664
3,425,22,700,2,2,8.5,0,8.5,0,1,5,45,2,0,0.2834703,59.999664
3,426,27,800,2,1,8.5,0,-8.5,0,0,5,45,2,1,0.4835022,59.999664
3,427,531,12855,1,1,8.5,0,-8.5,0,0,6,0,1,1,0.4667943,59.999664
3,428,383,13600,2,1,-8.5,0,8.5,0,0,6,0,2,1,0.4167995,59.999664
3,429,156,5500,2,1,-8.5,0,-8.5,0,1,6,0,4,1,0.5000463,59.999664
3,430,19,500,2,1,8.5,0,-8.5,0,0,5,45,4,1,0.4167082,59.999664
3,431,187,6300,2,1,8.5,0,-8.5,0,0,6,0,3,1,0.3166946,59.999664
3,432,314,11000,2,2,-8.5,0,-8.5,0,1,6,0,2,1,0.4167423,59.999664
3,433,221,7500,2,2,8.5,0,-8.5,0,0,5,45,2,1,0.3500228,59.999664
3,434,365,12900,2,2,8.5,0,-8.5,0,0,6,0,1,1,0.2694545,59.999664
3,435,434,16200,2,2,-8.5,0,-8.5,0,1,6,0,2,1,0.3848975,59.999664
3,436,363,12700,2,1,8.5,0,-8.5,0,0,6,0,4,1,0.4334139,59.999664
3,437,103,3300,2,1,-8.5,0,8.5,0,0,6,0,1,1,0.4500322,59.999664
3,438,70,2500,2,2,8.5,0,8.5,0,1,6,0,2,1,0.3334768,59.999664
3,439,48,1700,2,1,8.5,0,8.5,0,1,6,0,2,1,0.3166474,59.999664
3,440,8,300,2,1,8.5,0,8.5,0,1,6,0,3,1,0.2500925,59.999664
3,441,556,14355,1,1,8.5,0,8.5,0,1,6,0,1,1,0.2167471,59.999664
3,442,504,10555,1,1,8.5,0,8.5,0,1,6,0,2,1,0.3334709,59.999664
3,443,125,4100,2,2,8.5,0,-8.5,0,0,6,0,1,1,0.516704,59.999664
3,444,533,13055,1,2,-8.5,0,8.5,0,0,5,45,3,1,0.5500353,59.999664
3,445,391,14100,2,1,-8.5,0,8.5,0,0,6,0,4,1,0.55056,59.999664
3,446,386,13800,2,2,-8.5,0,-8.5,0,1,5,45,4,0,0.3362783,59.999664
3,447,413,15200,2,2,8.5,0,-8.5,0,0,5,45,4,1,0.45013,59.999664
3,448,410,15000,2,2,-8.5,0,-8.5,0,1,5,45,4,1,0.4167865,59.999664
3,449,1,100,2,2,-8.5,0,8.5,0,0,6,0,1,1,0.4334178,59.999664
3,450,173,6000,2,2,8.5,0,-8.5,0,0,5,45,3,1,0.4000134,59.999664
3,451,525,12555,1,2,8.5,0,-8.5,0,0,5,45,4,1,0.4333655,59.999664
3,452,502,10455,1,2,8.5,0,8.5,0,1,6,0,4,1,0.4833664,59.999664
3,453,385,13800,2,2,-8.5,0,8.5,0,0,6,0,3,1,0.4350915,59.999664
3,454,161,5600,2,2,-8.5,0,8.5,0,0,6,0,2,1,0.4833648,59.999664
3,455,500,10455,1,1,-8.5,0,-8.5,0,1,6,0,4,0,0.4501183,59.999664
3,456,387,13800,2,1,8.5,0,-8.5,0,0,5,45,4,1,0.3666699,59.999664
3,457,172,6000,2,1,-8.5,0,-8.5,0,1,5,45,3,1,0.8166889,59.999664
3,458,30,900,2,2,8.5,0,8.5,0,1,6,0,2,1,0.3500295,59.999664
3,459,236,8000,2,1,-8.5,0,-8.5,0,1,5,45,4,1,0.3358268,59.999664
3,460,494,10155,1,2,-8.5,0,-8.5,0,1,5,45,4,1,0.3666322,59.999664
3,461,487,6955,1,1,8.5,0,-8.5,0,0,5,45,2,1,0.5001369,59.999664
3,462,506,10555,1,2,-8.5,0,-8.5,0,1,6,0,2,1,0.4000188,59.999664
3,463,356,12600,2,1,-8.5,0,-8.5,0,1,5,45,3,1,0.4833058,59.999664
3,464,322,11300,2,2,-8.5,0,-8.5,0,1,5,45,4,1,0.4172638,59.999664
3,465,222,7500,2,2,8.5,0,8.5,0,1,5,45,1,1,0.533452,59.999664
3,466,290,10100,2,2,-8.5,0,-8.5,0,1,5,45,4,1,0.433461,59.999664
3,467,220,7500,2,1,-8.5,0,-8.5,0,1,5,45,2,1,0.4334658,59.999664
3,468,292,10500,2,1,-8.5,0,-8.5,0,1,5,45,4,1,0.3833714,59.999664
3,469,216,7300,2,1,8.5,0,8.5,0,1,6,0,1,1,0.3501321,59.999664
3,470,152,5200,2,1,8.5,0,8.5,0,1,6,0,2,1,0.3001202,59.999664
3,471,73,2600,2,2,-8.5,0,8.5,0,0,6,0,1,1,0.3334539,59.999664
3,472,362,12700,2,2,-8.5,0,-8.5,0,1,6,0,2,0,0.3334591,59.999664
3,473,10,300,2,2,-8.5,0,-8.5,0,1,6,0,2,1,0.6000007,59.999664
3,474,110,3600,2,2,8.5,0,8.5,0,1,5,45,3,1,0.3841489,59.999664
3,475,384,13800,2,1,8.5,0,8.5,0,1,6,0,3,1,0.616657,59.999664
3,476,275,9500,2,1,8.5,0,-8.5,0,0,5,45,3,1,0.3834168,59.999664
3,477,238,8000,2,2,8.5,0,8.5,0,1,5,45,1,1,0.4682413,59.999664
3,478,294,10500,2,2,8.5,0,8.5,0,1,5,45,4,1,0.3334055,59.999664
3,479,364,12900,2,1,-8.5,0,-8.5,0,1,5,45,1,1,0.4667778,59.999664
3,480,109,3600,2,2,8.5,0,-8.5,0,0,5,45,4,1,0.3348155,59.999664
3,481,299,10600,2,1,8.5,0,-8.5,0,0,5,45,1,1,0.3333768,59.999664
3,482,280,9800,2,1,8.5,0,8.5,0,1,5,45,2,1,0.3500426,59.999664
3,483,213,7200,2,2,8.5,0,-8.5,0,0,6,0,1,1,0.4500508,59.999664
3,484,453,2255,1,2,8.5,0,-8.5,0,0,5,45,2,1,0.3167073,59.999664
3,485,298,10600,2,2,-8.5,0,-8.5,0,1,6,0,1,1,0.4667862,59.999664
3,486,426,15800,2,2,-8.5,0,-8.5,0,1,5,45,3,1,0.3501038,59.999664
3,487,151,4900,2,1,-8.5,0,8.5,0,0,6,0,4,1,0.283404,59.999664
3,488,232,7900,2,1,8.5,0,8.5,0,1,6,0,2,1,0.2836488,59.999664
3,489,69,2500,2,2,8.5,0,-8.5,0,0,5,45,2,1,0.6333576,59.999664
3,490,112,3700,2,1,8.5,0,8.5,0,1,6,0,4,1,0.3333513,59.999664
3,491,509,10855,1,2,-8.5,0,8.5,0,0,6,0,4,1,0.333388,59.999664
3,492,147,4800,2,1,8.5,0,-8.5,0,0,5,45,4,1,0.4000512,59.999664
3,493,146,4800,2,2,-8.5,0,-8.5,0,1,6,0,3,1,0.3500484,59.999664
3,494,476,6355,1,1,-8.5,0,-8.5,0,1,5,45,1,1,0.3833826,59.999664
3,495,266,9300,2,2,-8.5,0,-8.5,0,1,5,45,3,1,0.4166639,59.999664
3,496,555,14155,1,1,8.5,0,-8.5,0,0,6,0,2,1,0.266693,59.999664
3,497,200,6900,2,1,8.5,0,8.5,0,1,6,0,1,1,0.266687,59.999664
3,498,36,1100,2,1,-8.5,0,-8.5,0,1,5,45,4,1,0.3002021,59.999664
3,499,5,200,2,2,8.5,0,-8.5,0,0,5,45,3,1,0.3332382,59.999664
3,500,45,1600,2,2,8.5,0,-8.5,0,0,5,45,1,0,0.2833841,59.999664
3,501,121,4000,2,2,-8.5,0,8.5,0,0,6,0,3,1,0.3335645,59.999664
3,502,376,13400,2,1,8.5,0,8.5,0,1,6,0,3,1,0.3833726,59.999664
3,503,345,12200,2,2,-8.5,0,8.5,0,0,5,45,2,1,0.500044,59.999664
3,504,361,12700,2,2,-8.5,0,8.5,0,0,6,0,4,1,0.3003496,59.999664
3,505,287,10000,2,1,-8.5,0,8.5,0,0,6,0,2,1,0.3334559,59.999664
3,506,100,3300,2,1,-8.5,0,-8.5,0,1,6,0,2,1,0.4166409,59.999664
3,507,57,2000,2,2,-8.5,0,8.5,0,0,6,0,1,1,0.3834093,59.999664
3,508,180,6200,2,1,-8.5,0,-8.5,0,1,6,0,1,1,0.3334068,59.999664
3,509,305,10800,2,2,-8.5,0,8.5,0,0,6,0,4,1,0.6334068,59.999664
3,510,518,12155,1,2,-8.5,0,-8.5,0,1,6,0,2,1,0.4176347,59.999664
3,511,547,13855,1,1,8.5,0,-8.5,0,0,5,45,4,1,0.483379,59.999664
3,512,408,15000,2,1,8.5,0,8.5,0,1,6,0,1,1,0.2833885,59.999664
3,513,484,6955,1,1,8.5,0,8.5,0,1,5,45,3,1,0.4167658,59.999664
3,514,435,16200,2,1,8.5,0,-8.5,0,0,5,45,3,1,0.3667747,59.999664
3,515,116,3800,2,1,-8.5,0,-8.5,0,1,6,0,2,1,0.4334427,59.999664
3,516,342,12100,2,2,8.5,0,8.5,0,1,6,0,1,1,0.3833694,59.999664
3,517,128,4200,2,1,8.5,0,8.5,0,1,5,45,4,1,0.3666332,59.999664
3,518,197,6800,2,2,8.5,0,-8.5,0,0,6,0,3,1,0.4501005,59.999664
3,519,259,8700,2,1,8.5,0,-8.5,0,0,5,45,3,1,0.4685644,59.999664
3,520,288,10100,2,1,8.5,0,8.5,0,1,5,45,1,0,0.3167326,59.999664
3,521,439,455,1,1,8.5,0,-8.5,0,0,5,45,3,1,0.4000189,59.999664
3,522,553,14155,1,2,-8.5,0,8.5,0,0,5,45,4,1,0.4667861,59.999664
3,523,503,10455,1,1,-8.5,0,8.5,0,0,6,0,2,1,0.366777,59.999664
3,524,337,12000,2,2,-8.5,0,8.5,0,0,5,45,2,1,0.4500363,59.999664
3,525,117,3800,2,2,8.5,0,-8.5,0,0,5,45,2,1,0.4348725,59.999664
3,526,39,1100,2,1,-8.5,0,8.5,0,0,5,45,4,1,0.533454,59.999664
3,527,44,1600,2,1,-8.5,0,-8.5,0,1,5,45,3,1,0.3500239,59.999664
3,528,65,2300,2,2,-8.5,0,8.5,0,0,5,45,2,1,0.483388,59.999664
3,529,420,15700,2,1,-8.5,0,-8.5,0,1,5,45,1,1,0.4000345,59.999664
3,530,416,15300,2,1,8.5,0,8.5,0,1,5,45,4,1,0.3840719,59.999664
3,531,119,3800,2,1,-8.5,0,8.5,0,0,5,45,2,1,0.450048,59.999664
3,532,427,15800,2,1,8.5,0,-8.5,0,0,6,0,1,1,0.5185836,59.999664
3,533,395,14200,2,1,8.5,0,-8.5,0,0,5,45,2,1,0.4500575,59.999664
3,534,262,9100,2,2,8.5,0,8.5,0,1,6,0,2,1,0.4333823,59.999664
3,535,253,8600,2,2,8.5,0,-8.5,0,0,5,45,4,1,0.4166249,59.999664
3,536,33,1000,2,2,-8.5,0,8.5,0,0,5,45,1,1,0.5833749,59.999664
3,537,392,14200,2,1,8.5,0,8.5,0,1,5,45,4,1,0.4500507,59.999664
3,538,239,8000,2,1,-8.5,0,8.5,0,0,5,45,4,1,0.5167744,59.999664
3,539,42,1300,2,2,-8.5,0,-8.5,0,1,6,0,2,1,0.4845228,59.999664
3,540,401,14400,2,2,-8.5,0,8.5,0,0,5,45,3,1,0.4834037,59.999664
3,541,399,14300,2,1,-8.5,0,8.5,0,0,6,0,1,1,0.333318,59.999664
3,542,135,4300,2,1,-8.5,0,8.5,0,0,6,0,1,1,0.4000318,59.999664
3,543,21,700,2,2,8.5,0,-8.5,0,0,5,45,2,1,0.4347222,59.999664
3,544,444,1855,1,1,8.5,0,8.5,0,1,5,45,3,1,0.4500316,59.999664
3,545,443,1255,1,1,-8.5,0,8.5,0,0,5,45,3,0,0.3834098,59.999664
3,546,343,12100,2,1,-8.5,0,8.5,0,0,6,0,4,1,0.3507846,59.999664
3,547,539,13155,1,1,-8.5,0,8.5,0,0,6,0,2,1,0.4167449,59.999664
3,548,296,10600,2,1,8.5,0,8.5,0,1,5,45,2,1,0.4834179,59.999664
3,549,396,14300,2,1,-8.5,0,-8.5,0,1,5,45,4,1,0.3833471,59.999664
3,550,261,9100,2,2,8.5,0,-8.5,0,0,6,0,1,1,0.483409,59.999664
3,551,350,12400,2,2,8.5,0,8.5,0,1,5,45,4,1,0.4833284,59.999664
3,552,479,6355,1,1,-8.5,0,8.5,0,0,5,45,4,1,0.4667564,59.999664
3,553,158,5500,2,2,8.5,0,8.5,0,1,5,45,2,1,0.4000549,59.999664
3,554,308,10900,2,1,-8.5,0,-8.5,0,1,5,45,4,1,0.3667282,59.999664
3,555,498,10355,1,2,-8.5,0,-8.5,0,1,5,45,2,1,0.4167929,59.999664
3,556,297,10600,2,2,-8.5,0,8.5,0,0,5,45,3,0,0.3167841,59.999664
3,557,29,900,2,2,8.5,0,-8.5,0,0,6,0,2,0,0.3334524,59.999664
3,558,72,2600,2,1,8.5,0,8.5,0,1,5,45,3,1,0.6667084,59.999664
3,559,46,1600,2,2,8.5,0,8.5,0,1,5,45,1,1,0.5333446,59.999664
3,560,319,11100,2,1,-8.5,0,8.5,0,0,6,0,1,1,0.3334241,59.999664
3,561,229,7700,2,2,8.5,0,-8.5,0,0,5,45,1,1,0.3666946,59.999664
3,562,409,15000,2,2,-8.5,0,8.5,0,0,5,45,4,0,0.3333643,59.999664
3,563,64,2300,2,1,8.5,0,8.5,0,1,5,45,3,1,0.5666869,59.999664
3,564,144,4800,2,1,8.5,0,8.5,0,1,6,0,1,1,0.5334575,59.999664
3,565,41,1300,2,2,-8.5,0,8.5,0,0,5,45,2,1,0.4667423,59.999664
3,566,492,10155,1,1,8.5,0,8.5,0,1,6,0,3,1,0.3334577,59.999664
3,567,58,2000,2,2,-8.5,0,-8.5,0,1,5,45,3,1,0.4166863,59.999664
4,0,170,5800,2,2,8.5,0,8.5,0,1,6,0,2,1,0.6333675,60.00099602
4,1,560,17255,1,1,-8.5,0,-8.5,0,1,5,45,3,1,0.7167092,60.00099602
4,2,31,900,2,1,8.5,0,-8.5,0,0,5,45,4,1,0.783375,60.00099602
4,3,401,14400,2,2,-8.5,0,8.5,0,0,5,45,4,1,0.7334624,60.00099602
4,4,257,8700,2,2,-8.5,0,8.5,0,0,6,0,1,1,0.650014,60.00099602
4,5,325,11500,2,2,8.5,0,-8.5,0,0,6,0,2,1,0.683347,60.00099602
4,6,172,6000,2,1,8.5,0,8.5,0,1,5,45,2,1,0.6333439,60.00099602
4,7,252,8600,2,1,-8.5,0,-8.5,0,1,6,0,4,1,0.5833753,60.00099602
4,8,146,4800,2,2,8.5,0,8.5,0,1,5,45,1,1,0.583336,60.00099602
4,9,441,1255,1,2,8.5,0,-8.5,0,0,5,45,4,1,0.6333523,60.00099602
4,10,338,12000,2,2,8.5,0,8.5,0,1,6,0,2,1,0.5834429,60.00099602
4,11,510,10855,1,2,-8.5,0,-8.5,0,1,5,45,3,1,0.6000111,60.00099602
4,12,153,5200,2,2,8.5,0,-8.5,0,0,5,45,1,1,0.5834134,60.00099602
4,13,371,13100,2,1,-8.5,0,8.5,0,0,5,45,3,1,0.7333652,60.00099602
4,14,501,10455,1,2,8.5,0,-8.5,0,0,5,45,3,1,0.6833936,60.00099602
4,15,195,6600,2,1,-8.5,0,8.5,0,0,5,45,4,1,0.5834131,60.00099602
4,16,492,10155,1,1,-8.5,0,-8.5,0,1,6,0,3,1,0.5511035,60.00099602
4,17,358,12600,2,2,8.5,0,8.5,0,1,6,0,1,1,0.6333753,60.00099602
4,18,477,6355,1,2,8.5,0,-8.5,0,0,6,0,2,1,0.6333799,60.00099602
4,19,290,10100,2,2,8.5,0,8.5,0,1,5,45,4,1,0.5833588,60.00099602
4,20,398,14300,2,2,8.5,0,8.5,0,1,6,0,1,1,0.6167812,60.00099602
4,21,138,4500,2,2,-8.5,0,-8.5,0,1,6,0,1,1,0.5333736,60.00099602
4,22,431,16100,2,1,-8.5,0,8.5,0,0,6,0,1,1,0.6500199,60.00099602
4,23,402,14400,2,2,-8.5,0,-8.5,0,1,5,45,3,1,0.5834361,60.00099602
4,24,4,200,2,1,8.5,0,8.5,0,1,5,45,3,1,0.650109,60.00099602
4,25,76,2700,2,1,8.5,0,8.5,0,1,5,45,3,1,0.5833931,60.00099602
4,26,342,12100,2,2,-8.5,0,-8.5,0,1,6,0,2,1,0.5500119,60.00099602
4,27,133,4300,2,2,8.5,0,-8.5,0,0,6,0,1,1,0.6844284,60.00099602
4,28,215,7200,2,1,-8.5,0,8.5,0,0,6,0,2,1,0.7833514,60.00099602
4,29,255,8600,2,1,-8.5,0,8.5,0,0,5,45,3,1,0.6000497,60.00099602
4,30,367,12900,2,1,8.5,0,-8.5,0,0,6,0,2,1,0.6000404,60.00099602
4,31,175,6000,2,1,8.5,0,-8.5,0,0,6,0,3,1,0.5833088,60.00099602
4,32,93,3100,2,2,8.5,0,-8.5,0,0,5,45,4,1,0.6499928,60.00099602
4,33,204,7000,2,1,-8.5,0,-8.5,0,1,6,0,2,1,0.6334402,60.00099602
4,34,295,10500,2,1,8.5,0,-8.5,0,0,6,0,2,1,0.6167894,60.00099602
4,35,410,15000,2,2,8.5,0,8.5,0,1,5,45,4,1,0.5333516,60.00099602
4,36,549,14055,1,2,8.5,0,-8.5,0,0,5,45,4,1,0.6667218,60.00099602
4,37,385,13800,2,2,8.5,0,-8.5,0,0,5,45,3,1,0.6166191,60.00099602
4,38,460,2955,1,1,8.5,0,8.5,0,1,5,45,4,1,0.9000169,60.00099602
4,39,376,13400,2,1,8.5,0,8.5,0,1,6,0,1,1,0.5667169,60.00099602
4,40,393,14200,2,2,8.5,0,-8.5,0,0,6,0,4,1,0.6833499,60.00099602
4,41,518,12155,1,2,8.5,0,8.5,0,1,6,0,1,1,0.6333457,60.00099602
4,42,488,9255,1,1,-8.5,0,-8.5,0,1,5,45,4,1,0.601084,60.00099602
4,43,56,2000,2,1,-8.5,0,-8.5,0,1,6,0,1,1,0.5688642,60.00099602
4,44,355,12500,2,1,8.5,0,-8.5,0,0,6,0,4,1,0.7000189,60.00099602
4,45,537,13155,1,2,8.5,0,-8.5,0,0,5,45,3,1,0.8166386,60.00099602
4,46,126,4100,2,2,-8.5,0,-8.5,0,1,6,0,2,1,0.633443,60.00099602
4,47,452,2255,1,1,-8.5,0,-8.5,0,1,6,0,4,1,0.5999738,60.00099602
4,48,525,12555,1,2,8.5,0,-8.5,0,0,6,0,4,1,0.7167569,60.00099602
4,49,559,14355,1,1,8.5,0,-8.5,0,0,5,45,2,1,0.6180503,60.00099602
4,50,308,10900,2,1,-8.5,0,-8.5,0,1,5,45,3,1,0.650932,60.00099602
4,51,14,400,2,2,8.5,0,8.5,0,1,6,0,4,1,0.6667059,60.00099602
4,52,397,14300,2,2,8.5,0,-8.5,0,0,5,45,4,1,0.6667024,60.00099602
4,53,483,6855,1,1,-8.5,0,8.5,0,0,5,45,2,1,0.6333362,60.00099602
4,54,193,6600,2,2,8.5,0,-8.5,0,0,6,0,1,1,0.6334766,60.00099602
4,55,34,1000,2,2,8.5,0,8.5,0,1,5,45,1,1,0.5334473,60.00099602
4,56,73,2600,2,2,8.5,0,-8.5,0,0,6,0,2,1,0.5666962,60.00099602
4,57,70,2500,2,2,8.5,0,8.5,0,1,6,0,1,1,0.6834224,60.00099602
4,58,522,12355,1,2,-8.5,0,-8.5,0,1,5,45,2,1,0.6009316,60.00099602
4,59,447,1855,1,1,-8.5,0,8.5,0,0,6,0,3,1,0.7667667,60.00099602
4,60,504,10555,1,1,-8.5,0,-8.5,0,1,6,0,1,1,0.6166654,60.00099602
4,61,231,7700,2,1,-8.5,0,8.5,0,0,5,45,4,1,0.4999805,60.00099602
4,62,188,6500,2,1,-8.5,0,-8.5,0,1,6,0,1,1,0.8667764,60.00099602
4,63,337,12000,2,2,8.5,0,-8.5,0,0,6,0,4,1,0.6167706,60.00099602
4,64,191,6500,2,1,-8.5,0,8.5,0,0,5,45,3,1,0.5001358,60.00099602
4,65,116,3800,2,1,-8.5,0,-8.5,0,1,6,0,3,1,0.5167979,60.00099602
4,66,237,8000,2,2,8.5,0,-8.5,0,0,5,45,1,1,0.5833451,60.00099602
4,67,150,4900,2,2,-8.5,0,-8.5,0,1,6,0,4,1,0.5500236,60.00099602
4,68,433,16200,2,2,8.5,0,-8.5,0,0,6,0,1,1,0.5167138,60.00099602
4,69,268,9400,2,1,8.5,0,8.5,0,1,5,45,3,1,0.6501229,60.00099602
4,70,223,7500,2,1,8.5,0,-8.5,0,0,5,45,1,1,0.6500973,60.00099602
4,71,285,10000,2,2,8.5,0,-8.5,0,0,6,0,4,1,0.7667777,60.00099602
4,72,233,7900,2,2,-8.5,0,8.5,0,0,6,0,3,1,0.6667292,60.00099602
4,73,545,13855,1,2,-8.5,0,8.5,0,0,6,0,3,1,0.6500054,60.00099602
4,74,40,1300,2,1,8.5,0,8.5,0,1,5,45,2,1,0.5834625,60.00099602
4,75,185,6300,2,2,-8.5,0,8.5,0,0,6,0,2,1,0.6334145,60.00099602
4,76,493,10155,1,2,8.5,0,-8.5,0,0,5,45,4,1,0.5834176,60.00099602
4,77,273,9500,2,2,8.5,0,-8.5,0,0,5,45,4,1,0.6008627,60.00099602
4,78,86,2900,2,2,8.5,0,8.5,0,1,5,45,4,1,0.5667187,60.00099602
4,79,364,12900,2,1,8.5,0,8.5,0,1,6,0,4,1,0.5667946,60.00099602
4,80,297,10600,2,2,8.5,0,-8.5,0,0,6,0,3,1,0.6167948,60.00099602
4,81,405,14600,2,2,8.5,0,-8.5,0,0,5,45,4,1,0.6334704,60.00099602
4,82,411,15000,2,1,-8.5,0,8.5,0,0,5,45,3,1,0.5333872,60.00099602
4,83,276,9600,2,1,-8.5,0,-8.5,0,1,6,0,1,1,0.5333983,60.00099602
4,84,380,13600,2,1,-8.5,0,-8.5,0,1,5,45,2,1,0.533453,60.00099602
4,85,16,500,2,1,8.5,0,8.5,0,1,6,0,1,1,0.6342461,60.00099602
4,86,552,14155,1,1,-8.5,0,-8.5,0,1,5,45,3,1,0.6001321,60.00099602
4,87,399,14300,2,1,-8.5,0,8.5,0,0,5,45,1,1,0.5500511,60.00099602
4,88,436,455,1,1,8.5,0,8.5,0,1,5,45,4,1,0.5834327,60.00099602
4,89,329,11600,2,2,-8.5,0,8.5,0,0,5,45,4,1,0.6667507,60.00099602
4,90,323,11300,2,1,-8.5,0,8.5,0,0,6,0,2,1,0.5834083,60.00099602
4,91,161,5600,2,2,-8.5,0,8.5,0,0,6,0,1,1,0.666698,60.00099602
4,92,322,11300,2,2,8.5,0,8.5,0,1,5,45,4,1,0.5500324,60.00099602
4,93,243,8100,2,1,-8.5,0,8.5,0,0,6,0,2,1,0.7834558,60.00099602
4,94,444,1855,1,1,-8.5,0,-8.5,0,1,6,0,2,1,0.5169752,60.00099602
4,95,476,6355,1,1,-8.5,0,-8.5,0,1,6,0,3,1,0.6167759,60.00099602
4,96,122,4000,2,2,8.5,0,8.5,0,1,5,45,3,1,0.6334182,60.00099602
4,97,235,7900,2,1,8.5,0,-8.5,0,0,6,0,3,1,0.7000494,60.00099602
4,98,451,2155,1,1,8.5,0,-8.5,0,0,6,0,3,1,0.56672,60.00099602
4,99,58,2000,2,2,8.5,0,8.5,0,1,6,0,4,1,0.5667656,60.00099602
4,100,264,9300,2,1,-8.5,0,-8.5,0,1,6,0,1,1,0.5000989,60.00099602
4,101,526,12555,1,2,8.5,0,8.5,0,1,6,0,1,1,0.5667665,60.00099602
4,102,317,11100,2,2,-8.5,0,8.5,0,0,6,0,3,1,0.5666467,60.00099602
4,103,63,2200,2,1,-8.5,0,8.5,0,0,5,45,2,1,0.5500441,60.00099602
4,104,513,11755,1,2,8.5,0,-8.5,0,0,6,0,2,1,0.5666599,60.00099602
4,105,3,100,2,1,-8.5,0,8.5,0,0,5,45,2,1,0.6166491,60.00099602
4,106,351,12400,2,1,-8.5,0,8.5,0,0,6,0,3,1,0.549969,60.00099602
4,107,479,6355,1,1,-8.5,0,8.5,0,0,5,45,4,1,0.5333669,60.00099602
4,108,9,300,2,2,8.5,0,-8.5,0,0,5,45,1,1,0.5501141,60.00099602
4,109,482,6855,1,2,8.5,0,8.5,0,1,5,45,3,1,0.5501099,60.00099602
4,110,356,12600,2,1,-8.5,0,-8.5,0,1,5,45,3,1,0.5173327,60.00099602
4,111,229,7700,2,2,8.5,0,-8.5,0,0,5,45,3,1,0.5667004,60.00099602
4,112,341,12100,2,2,-8.5,0,8.5,0,0,6,0,2,1,0.6501273,60.00099602
4,113,98,3200,2,2,8.5,0,8.5,0,1,5,45,4,1,0.6000453,60.00099602
4,114,502,10455,1,2,8.5,0,8.5,0,1,6,0,1,0,0.7333762,60.00099602
4,115,294,10500,2,2,-8.5,0,-8.5,0,1,5,45,4,1,0.6334641,60.00099602
4,116,383,13600,2,1,-8.5,0,8.5,0,0,6,0,4,1,0.6334584,60.00099602
4,117,508,10855,1,1,8.5,0,8.5,0,1,6,0,2,1,0.6333701,60.00099602
4,118,475,4155,1,1,8.5,0,-8.5,0,0,6,0,4,1,0.6835746,60.00099602
4,119,318,11100,2,2,-8.5,0,-8.5,0,1,6,0,1,1,0.6167543,60.00099602
4,120,51,1700,2,1,-8.5,0,8.5,0,0,6,0,1,1,0.5501326,60.00099602
4,121,132,4300,2,1,-8.5,0,-8.5,0,1,6,0,4,1,0.5833485,60.00099602
4,122,0,100,2,1,-8.5,0,-8.5,0,1,6,0,1,1,0.5500658,60.00099602
4,123,466,3155,1,2,8.5,0,8.5,0,1,6,0,2,1,0.5501039,60.00099602
4,124,481,6855,1,2,8.5,0,-8.5,0,0,6,0,4,1,0.5833974,60.00099602
4,125,461,2955,1,2,-8.5,0,8.5,0,0,5,45,4,1,0.6499763,60.00099602
4,126,357,12600,2,2,8.5,0,-8.5,0,0,6,0,2,1,0.5675988,60.00099602
4,127,468,3355,1,1,-8.5,0,-8.5,0,1,5,45,1,1,0.5667776,60.00099602
4,128,359,12600,2,1,-8.5,0,8.5,0,0,5,45,1,1,0.5168066,60.00099602
4,129,315,11000,2,1,-8.5,0,8.5,0,0,6,0,3,1,0.6001036,60.00099602
4,130,442,1255,1,2,8.5,0,8.5,0,1,5,45,3,1,0.5334314,60.00099602
4,131,289,10100,2,2,8.5,0,-8.5,0,0,6,0,2,1,0.5500765,60.00099602
4,132,210,7100,2,2,-8.5,0,-8.5,0,1,6,0,4,1,0.5000652,60.00099602
4,133,378,13400,2,2,-8.5,0,-8.5,0,1,5,45,2,1,0.5501328,60.00099602
4,134,37,1100,2,2,8.5,0,-8.5,0,0,5,45,4,1,0.5167535,60.00099602
4,135,154,5200,2,2,8.5,0,8.5,0,1,6,0,3,1,0.5333761,60.00099602
4,136,173,6000,2,2,-8.5,0,8.5,0,0,5,45,2,1,0.5167195,60.00099602
4,137,140,4700,2,1,-8.5,0,-8.5,0,1,5,45,4,1,0.5000512,60.00099602
4,138,539,13155,1,1,-8.5,0,8.5,0,0,5,45,4,1,0.5499697,60.00099602
4,139,456,2655,1,1,-8.5,0,-8.5,0,1,6,0,3,1,0.7334084,60.00099602
4,140,509,10855,1,2,-8.5,0,8.5,0,0,5,45,4,1,0.5167993,60.00099602
4,141,232,7900,2,1,8.5,0,8.5,0,1,6,0,1,1,0.7333238,60.00099602
4,142,163,5600,2,1,8.5,0,-8.5,0,0,6,0,3,1,0.6501302,60.00099602
4,143,27,800,2,1,-8.5,0,8.5,0,0,5,45,3,1,0.6000946,60.00099602
4,144,196,6800,2,1,8.5,0,8.5,0,1,6,0,1,1,0.5834673,60.00099602
4,145,303,10700,2,1,-8.5,0,8.5,0,0,5,45,4,1,0.6179604,60.00099602
4,146,1,100,2,2,8.5,0,-8.5,0,0,5,45,3,1,0.6500367,60.00099602
4,147,350,12400,2,2,8.5,0,8.5,0,1,5,45,3,1,0.6333702,60.00099602
4,148,145,4800,2,2,8.5,0,-8.5,0,0,5,45,2,1,0.4841988,60.00099602
4,149,254,8600,2,2,8.5,0,8.5,0,1,6,0,4,1,0.4500399,60.00099602
4,150,312,11000,2,1,-8.5,0,-8.5,0,1,6,0,1,1,0.6333589,60.00099602
4,151,544,13855,1,1,8.5,0,8.5,0,1,5,45,4,1,0.7001041,60.00099602
4,152,538,13155,1,2,8.5,0,8.5,0,1,6,0,2,1,0.7833818,60.00099602
4,153,540,13255,1,1,-8.5,0,-8.5,0,1,5,45,3,1,0.6667753,60.00099602
4,154,320,11300,2,1,-8.5,0,-8.5,0,1,5,45,3,1,0.6183916,60.00099602
4,155,55,1800,2,1,8.5,0,-8.5,0,0,6,0,2,1,0.6334539,60.00099602
4,156,349,12400,2,2,8.5,0,-8.5,0,0,6,0,1,1,0.5834564,60.00099602
4,157,119,3800,2,1,-8.5,0,8.5,0,0,5,45,3,1,0.5339203,60.00099602
4,158,484,6955,1,1,8.5,0,8.5,0,1,6,0,1,1,0.5167122,60.00099602
4,159,301,10700,2,2,8.5,0,-8.5,0,0,5,45,4,1,0.5166857,60.00099602
4,160,87,2900,2,1,-8.5,0,8.5,0,0,5,45,3,1,0.6167733,60.00099602
4,161,517,12155,1,2,8.5,0,-8.5,0,0,5,45,2,1,0.5851835,60.00099602
4,162,384,13800,2,1,-8.5,0,-8.5,0,1,6,0,4,1,0.4667986,60.00099602
4,163,553,14155,1,2,8.5,0,-8.5,0,0,5,45,1,1,0.5167949,60.00099602
4,164,95,3100,2,1,-8.5,0,8.5,0,0,6,0,2,1,0.500122,60.00099602
4,165,495,10155,1,1,-8.5,0,8.5,0,0,5,45,4,1,0.6172577,60.00099602
4,166,471,3355,1,1,-8.5,0,8.5,0,0,5,45,4,1,0.6000498,60.00099602
4,167,72,2600,2,1,-8.5,0,-8.5,0,1,6,0,3,1,0.5500851,60.00099602
4,168,24,800,2,1,-8.5,0,-8.5,0,1,6,0,2,1,0.6167061,60.00099602
4,169,266,9300,2,2,8.5,0,8.5,0,1,5,45,2,1,0.7001345,60.00099602
4,170,248,8400,2,1,-8.5,0,-8.5,0,1,5,45,2,1,0.5333821,60.00099602
4,171,420,15700,2,1,-8.5,0,-8.5,0,1,6,0,3,1,0.5833308,60.00099602
4,172,437,455,1,2,-8.5,0,8.5,0,0,5,45,4,1,0.5844838,60.00099602
4,173,131,4200,2,1,-8.5,0,8.5,0,0,6,0,1,1,0.5001061,60.00099602
4,174,228,7700,2,1,-8.5,0,-8.5,0,1,5,45,2,1,0.5167475,60.00099602
4,175,90,3000,2,2,-8.5,0,-8.5,0,1,5,45,1,1,0.5667536,60.00099602
4,176,217,7300,2,2,8.5,0,-8.5,0,0,6,0,1,1,0.616803,60.00099602
4,177,213,7200,2,2,8.5,0,-8.5,0,0,6,0,2,1,0.5499806,60.00099602
4,178,304,10800,2,1,8.5,0,8.5,0,1,5,45,1,1,0.5000214,60.00099602
4,179,333,11700,2,2,8.5,0,-8.5,0,0,6,0,1,1,0.5517248,60.00099602
4,180,224,7600,2,1,-8.5,0,-8.5,0,1,5,45,3,1,0.5000157,60.00099602
4,181,245,8300,2,2,-8.5,0,8.5,0,0,6,0,3,1,0.5668426,60.00099602
4,182,445,1855,1,2,8.5,0,-8.5,0,0,5,45,4,1,0.5500401,60.00099602
4,183,470,3355,1,2,8.5,0,8.5,0,1,5,45,3,1,0.5667208,60.00099602
4,184,464,3155,1,1,-8.5,0,-8.5,0,1,6,0,2,1,0.5501344,60.00099602
4,185,121,4000,2,2,8.5,0,-8.5,0,0,6,0,4,1,0.5667,60.00099602
4,186,282,9800,2,2,-8.5,0,-8.5,0,1,5,45,2,1,0.5834028,60.00099602
4,187,438,455,1,2,-8.5,0,-8.5,0,1,6,0,3,1,0.6834046,60.00099602
4,188,415,15200,2,1,8.5,0,-8.5,0,0,6,0,2,1,0.6333605,60.00099602
4,189,166,5700,2,2,8.5,0,8.5,0,1,5,45,4,1,0.5834679,60.00099602
4,190,467,3155,1,1,-8.5,0,8.5,0,0,5,45,3,1,0.7166691,60.00099602
4,191,363,12700,2,1,-8.5,0,8.5,0,0,6,0,2,1,0.6333514,60.00099602
4,192,177,6100,2,2,8.5,0,-8.5,0,0,5,45,3,1,0.7016249,60.00099602
4,193,394,14200,2,2,8.5,0,8.5,0,1,5,45,4,1,0.6500138,60.00099602
4,194,123,4000,2,1,-8.5,0,8.5,0,0,5,45,4,1,0.6000416,60.00099602
4,195,490,9255,1,2,8.5,0,8.5,0,1,5,45,1,1,0.6166925,60.00099602
4,196,250,8400,2,2,8.5,0,8.5,0,1,6,0,2,1,0.5667776,60.00099602
4,197,99,3200,2,1,-8.5,0,8.5,0,0,6,0,3,1,0.6833077,60.00099602
4,198,547,13855,1,1,8.5,0,-8.5,0,0,6,0,2,1,0.7000629,60.00099602
4,199,395,14200,2,1,-8.5,0,8.5,0,0,6,0,2,1,0.6834691,60.00099602
4,200,418,15300,2,2,8.5,0,8.5,0,1,5,45,1,1,0.5833234,60.00099602
4,201,391,14100,2,1,8.5,0,-8.5,0,0,6,0,2,1,0.6166946,60.00099602
4,202,347,12200,2,1,-8.5,0,8.5,0,0,6,0,2,1,0.6167117,60.00099602
4,203,565,17355,1,2,8.5,0,-8.5,0,0,6,0,3,1,0.5834749,60.00099602
4,204,190,6500,2,2,8.5,0,8.5,0,1,6,0,2,1,0.4833686,60.00099602
4,205,400,14400,2,1,8.5,0,8.5,0,1,6,0,4,1,0.6010316,60.00099602
4,206,22,700,2,2,8.5,0,8.5,0,1,5,45,1,1,0.6510836,60.00099602
4,207,511,10855,1,1,8.5,0,-8.5,0,0,5,45,4,1,0.8166969,60.00099602
4,208,7,200,2,1,8.5,0,-8.5,0,0,6,0,1,1,0.6333927,60.00099602
4,209,203,6900,2,1,-8.5,0,8.5,0,0,5,45,4,1,0.6667018,60.00099602
4,210,182,6200,2,2,8.5,0,8.5,0,1,6,0,2,1,0.4668,60.00099602
4,211,372,13200,2,1,-8.5,0,-8.5,0,1,5,45,3,1,0.5501022,60.00099602
4,212,448,2155,1,1,8.5,0,8.5,0,1,5,45,4,1,0.5833977,60.00099602
4,213,206,7000,2,2,8.5,0,8.5,0,1,6,0,3,1,0.5334185,60.00099602
4,214,427,15800,2,1,8.5,0,-8.5,0,0,6,0,2,1,0.6000081,60.00099602
4,215,226,7600,2,2,8.5,0,8.5,0,1,5,45,4,1,0.6000134,60.00099602
4,216,247,8300,2,1,8.5,0,-8.5,0,0,5,45,4,1,0.6166468,60.00099602
4,217,189,6500,2,2,8.5,0,-8.5,0,0,5,45,4,1,0.6334045,60.00099602
4,218,353,12500,2,2,-8.5,0,8.5,0,0,5,45,3,1,0.6334941,60.00099602
4,219,307,10800,2,1,8.5,0,-8.5,0,0,6,0,3,1,0.6001244,60.00099602
4,220,497,10355,1,2,-8.5,0,8.5,0,0,6,0,1,1,0.6833651,60.00099602
4,221,382,13600,2,2,8.5,0,8.5,0,1,5,45,3,1,0.6667759,60.00099602
4,222,379,13400,2,1,8.5,0,-8.5,0,0,6,0,3,1,0.5834393,60.00099602
4,223,463,2955,1,1,8.5,0,-8.5,0,0,5,45,4,1,0.5333892,60.00099602
4,224,164,5700,2,1,-8.5,0,-8.5,0,1,6,0,1,1,0.5500307,60.00099602
4,225,92,3100,2,1,-8.5,0,-8.5,0,1,6,0,1,1,0.5506007,60.00099602
4,226,558,14355,1,2,-8.5,0,-8.5,0,1,5,45,2,1,0.5667464,60.00099602
4,227,144,4800,2,1,-8.5,0,-8.5,0,1,6,0,2,1,0.6167756,60.00099602
4,228,332,11700,2,1,-8.5,0,-8.5,0,1,6,0,4,1,0.5833905,60.00099602
4,229,550,14055,1,2,8.5,0,8.5,0,1,6,0,4,1,0.5834367,60.00099602
4,230,346,12200,2,2,8.5,0,8.5,0,1,6,0,3,1,0.5500092,60.00099602
4,231,564,17355,1,1,-8.5,0,-8.5,0,1,5,45,2,1,0.5001216,60.00099602
4,232,300,10700,2,1,-8.5,0,-8.5,0,1,5,45,3,1,0.5000494,60.00099602
4,233,280,9800,2,1,8.5,0,8.5,0,1,6,0,3,1,0.4167673,60.00099602
4,234,272,9500,2,1,-8.5,0,-8.5,0,1,6,0,2,1,0.5833304,60.00099602
4,235,439,455,1,1,8.5,0,-8.5,0,0,5,45,3,1,0.6001338,60.00099602
4,236,429,16100,2,2,8.5,0,-8.5,0,0,6,0,1,1,0.5000275,60.00099602
4,237,474,4155,1,2,-8.5,0,-8.5,0,1,6,0,2,1,0.5334501,60.00099602
4,238,284,10000,2,1,-8.5,0,-8.5,0,1,6,0,2,1,0.466724,60.00099602
4,239,167,5700,2,1,-8.5,0,8.5,0,0,5,45,4,1,0.4522141,60.00099602
4,240,327,11500,2,1,-8.5,0,8.5,0,0,5,45,2,1,0.5834733,60.00099602
4,241,21,700,2,2,8.5,0,-8.5,0,0,5,45,2,1,0.5501045,60.00099602
4,242,408,15000,2,1,-8.5,0,-8.5,0,1,5,45,4,1,0.5009952,60.00099602
4,243,52,1800,2,1,8.5,0,8.5,0,1,5,45,3,1,0.5500333,60.00099602
4,244,80,2800,2,1,-8.5,0,-8.5,0,1,5,45,1,1,0.5333686,60.00099602
4,245,187,6300,2,1,8.5,0,-8.5,0,0,5,45,1,1,0.5334208,60.00099602
4,246,230,7700,2,2,8.5,0,8.5,0,1,5,45,2,1,0.6000838,60.00099602
4,247,200,6900,2,1,-8.5,0,-8.5,0,1,6,0,3,1,0.6167581,60.00099602
4,248,165,5700,2,2,8.5,0,-8.5,0,0,6,0,3,1,0.566753,60.00099602
4,249,222,7500,2,2,-8.5,0,-8.5,0,1,5,45,4,1,0.61674,60.00099602
4,250,432,16200,2,1,-8.5,0,-8.5,0,1,5,45,2,1,0.5667408,60.00099602
4,251,281,9800,2,2,-8.5,0,8.5,0,0,6,0,3,1,0.6001335,60.00099602
4,252,330,11600,2,2,-8.5,0,-8.5,0,1,5,45,1,1,0.5334213,60.00099602
4,253,459,2655,1,1,-8.5,0,8.5,0,0,6,0,2,1,0.5167177,60.00099602
4,254,409,15000,2,2,8.5,0,-8.5,0,0,5,45,2,1,0.5000658,60.00099602
4,255,111,3600,2,1,-8.5,0,8.5,0,0,5,45,3,1,0.5167213,60.00099602
4,256,57,2000,2,2,8.5,0,-8.5,0,0,5,45,4,1,0.5500126,60.00099602
4,257,516,12155,1,1,-8.5,0,-8.5,0,1,5,45,4,1,0.4334643,60.00099602
4,258,53,1800,2,2,-8.5,0,8.5,0,0,5,45,2,1,0.5178984,60.00099602
4,259,530,12855,1,2,8.5,0,8.5,0,1,5,45,2,1,0.4667841,60.00099602
4,260,424,15800,2,1,8.5,0,8.5,0,1,6,0,3,1,0.5167849,60.00099602
4,261,168,5800,2,1,-8.5,0,-8.5,0,1,6,0,3,1,0.5333927,60.00099602
4,262,265,9300,2,2,8.5,0,-8.5,0,0,6,0,3,1,0.5001083,60.00099602
4,263,13,400,2,2,8.5,0,-8.5,0,0,5,45,4,1,0.6333805,60.00099602
4,264,130,4200,2,2,8.5,0,8.5,0,1,6,0,2,1,0.6856075,60.00099602
4,265,45,1600,2,2,8.5,0,-8.5,0,0,6,0,1,1,0.6185751,60.00099602
4,266,78,2700,2,2,-8.5,0,-8.5,0,1,5,45,2,1,0.5666832,60.00099602
4,267,251,8400,2,1,-8.5,0,8.5,0,0,6,0,1,1,0.7000735,60.00099602
4,268,142,4700,2,2,8.5,0,8.5,0,1,5,45,3,1,0.5999613,60.00099602
4,269,110,3600,2,2,8.5,0,8.5,0,1,6,0,1,1,0.566802,60.00099602
4,270,184,6300,2,1,8.5,0,8.5,0,1,6,0,2,1,0.5667062,60.00099602
4,271,368,13100,2,1,-8.5,0,-8.5,0,1,6,0,4,1,0.6001281,60.00099602
4,272,430,16100,2,2,8.5,0,8.5,0,1,5,45,2,1,0.4667956,60.00099602
4,273,258,8700,2,2,-8.5,0,-8.5,0,1,5,45,1,1,0.6001296,60.00099602
4,274,344,12200,2,1,-8.5,0,-8.5,0,1,5,45,1,1,0.5166768,60.00099602
4,275,298,10600,2,2,8.5,0,8.5,0,1,6,0,1,1,0.484341,60.00099602
4,276,366,12900,2,2,-8.5,0,-8.5,0,1,6,0,1,1,0.4834343,60.00099602
4,277,563,17255,1,1,-8.5,0,8.5,0,0,6,0,2,1,0.5833637,60.00099602
4,278,81,2800,2,2,8.5,0,-8.5,0,0,6,0,3,1,0.6333368,60.00099602
4,279,343,12100,2,1,8.5,0,-8.5,0,0,6,0,1,1,0.6167926,60.00099602
4,280,296,10600,2,1,-8.5,0,-8.5,0,1,5,45,3,1,0.6500359,60.00099602
4,281,377,13400,2,2,-8.5,0,8.5,0,0,5,45,4,1,0.5336272,60.00099602
4,282,419,15300,2,1,-8.5,0,8.5,0,0,6,0,1,1,0.4667113,60.00099602
4,283,218,7300,2,2,8.5,0,8.5,0,1,6,0,2,1,0.41679,60.00099602
4,284,118,3800,2,2,8.5,0,8.5,0,1,5,45,2,1,0.6334337,60.00099602
4,285,32,1000,2,1,-8.5,0,-8.5,0,1,6,0,3,1,0.5500312,60.00099602
4,286,421,15700,2,2,8.5,0,-8.5,0,0,5,45,4,1,0.6001381,60.00099602
4,287,104,3500,2,1,-8.5,0,-8.5,0,1,6,0,4,1,0.5516659,60.00099602
4,288,108,3600,2,1,-8.5,0,-8.5,0,1,5,45,2,1,0.5166852,60.00099602
4,289,551,14055,1,1,-8.5,0,8.5,0,0,5,45,2,1,0.5166995,60.00099602
4,290,17,500,2,2,-8.5,0,8.5,0,0,5,45,3,1,0.5000521,60.00099602
4,291,352,12500,2,1,8.5,0,8.5,0,1,5,45,3,1,0.4833898,60.00099602
4,292,519,12155,1,1,-8.5,0,8.5,0,0,6,0,2,1,0.6667242,60.00099602
4,293,413,15200,2,2,-8.5,0,8.5,0,0,5,45,3,1,0.500035,60.00099602
4,294,20,700,2,1,-8.5,0,-8.5,0,1,6,0,2,1,0.5333532,60.00099602
4,295,241,8100,2,2,8.5,0,-8.5,0,0,5,45,1,1,0.4833827,60.00099602
4,296,392,14200,2,1,-8.5,0,-8.5,0,1,6,0,2,1,0.4834048,60.00099602
4,297,115,3700,2,1,8.5,0,-8.5,0,0,5,45,3,1,0.4845768,60.00099602
4,298,10,300,2,2,8.5,0,8.5,0,1,6,0,1,1,0.4000386,60.00099602
4,299,536,13155,1,1,-8.5,0,-8.5,0,1,5,45,1,1,0.4001385,60.00099602
4,300,181,6200,2,2,8.5,0,-8.5,0,0,5,45,1,1,0.5666821,60.00099602
4,301,74,2600,2,2,8.5,0,8.5,0,1,6,0,1,1,0.4001419,60.00099602
4,302,50,1700,2,2,8.5,0,8.5,0,1,5,45,3,1,0.4667308,60.00099602
4,303,77,2700,2,2,-8.5,0,8.5,0,0,6,0,4,1,0.6500156,60.00099602
4,304,527,12555,1,1,-8.5,0,8.5,0,0,5,45,3,1,0.5000981,60.00099602
4,305,457,2655,1,2,8.5,0,-8.5,0,0,5,45,4,1,0.6013096,60.00099602
4,306,386,13800,2,2,8.5,0,8.5,0,1,6,0,4,1,0.4677508,60.00099602
4,307,279,9600,2,1,-8.5,0,8.5,0,0,5,45,1,1,0.5167623,60.00099602
4,308,324,11500,2,1,-8.5,0,-8.5,0,1,6,0,1,1,0.5169645,60.00099602
4,309,5,200,2,2,-8.5,0,8.5,0,0,6,0,1,1,0.6001352,60.00099602
4,310,102,3300,2,2,-8.5,0,-8.5,0,1,5,45,3,1,0.5667757,60.00099602
4,311,171,5800,2,1,-8.5,0,8.5,0,0,5,45,4,1,0.5501086,60.00099602
4,312,494,10155,1,2,8.5,0,8.5,0,1,6,0,2,1,0.533458,60.00099602
4,313,434,16200,2,2,8.5,0,8.5,0,1,6,0,1,1,0.5001358,60.00099602
4,314,44,1600,2,1,-8.5,0,-8.5,0,1,6,0,2,1,0.5001114,60.00099602
4,315,176,6100,2,1,-8.5,0,-8.5,0,1,5,45,3,1,0.4847421,60.00099602
4,316,260,9100,2,1,-8.5,0,-8.5,0,1,6,0,1,1,0.5334055,60.00099602
4,317,101,3300,2,2,-8.5,0,8.5,0,0,5,45,4,1,0.4833815,60.00099602
4,318,491,9255,1,1,-8.5,0,8.5,0,0,6,0,3,1,0.6334138,60.00099602
4,319,416,15300,2,1,-8.5,0,-8.5,0,1,5,45,4,1,0.5333407,60.00099602
4,320,328,11600,2,1,8.5,0,8.5,0,1,5,45,3,1,0.5526108,60.00099602
4,321,96,3200,2,1,-8.5,0,-8.5,0,1,6,0,1,1,0.5833783,60.00099602
4,322,109,3600,2,2,8.5,0,-8.5,0,0,6,0,2,1,0.6000682,60.00099602
4,323,339,12000,2,1,-8.5,0,8.5,0,0,6,0,4,1,0.5833844,60.00099602
4,324,340,12100,2,1,8.5,0,8.5,0,1,5,45,3,1,0.4667077,60.00099602
4,325,321,11300,2,2,8.5,0,-8.5,0,0,5,45,4,1,0.5500339,60.00099602
4,326,194,6600,2,2,8.5,0,8.5,0,1,6,0,1,1,0.4333712,60.00099602
4,327,278,9600,2,2,8.5,0,8.5,0,1,6,0,2,1,0.4500576,60.00099602
4,328,275,9500,2,1,-8.5,0,8.5,0,0,5,45,4,1,0.5167217,60.00099602
4,329,28,900,2,1,8.5,0,8.5,0,1,5,45,4,1,0.5666235,60.00099602
4,330,147,4800,2,1,-8.5,0,8.5,0,0,5,45,4,1,0.5334597,60.00099602
4,331,259,8700,2,1,8.5,0,-8.5,0,0,6,0,4,1,0.5833946,60.00099602
4,332,155,5200,2,1,-8.5,0,8.5,0,0,6,0,2,1,0.5668006,60.00099602
4,333,478,6355,1,2,8.5,0,8.5,0,1,6,0,4,1,0.4500541,60.00099602
4,334,396,14300,2,1,-8.5,0,-8.5,0,1,6,0,3,1,0.5004529,60.00099602
4,335,169,5800,2,2,8.5,0,-8.5,0,0,5,45,2,1,0.5000411,60.00099602
4,336,435,16200,2,1,-8.5,0,8.5,0,0,5,45,1,1,0.5333624,60.00099602
4,337,141,4700,2,2,8.5,0,-8.5,0,0,5,45,3,1,0.5666821,60.00099602
4,338,489,9255,1,2,8.5,0,-8.5,0,0,6,0,3,1,0.5834115,60.00099602
4,339,374,13200,2,2,8.5,0,8.5,0,1,6,0,1,1,0.5167767,60.00099602
4,340,69,2500,2,2,8.5,0,-8.5,0,0,5,45,3,1,0.4833828,60.00099602
4,341,562,17255,1,2,8.5,0,8.5,0,1,5,45,1,1,0.4677051,60.00099602
4,342,267,9300,2,1,-8.5,0,8.5,0,0,5,45,3,1,0.5167898,60.00099602
4,343,422,15700,2,2,8.5,0,8.5,0,1,6,0,4,1,0.4335695,60.00099602
4,344,105,3500,2,2,8.5,0,-8.5,0,0,6,0,4,1,0.483356,60.00099602
4,345,500,10455,1,1,-8.5,0,-8.5,0,1,5,45,4,1,0.5166663,60.00099602
4,346,127,4100,2,1,8.5,0,-8.5,0,0,5,45,3,1,0.6500346,60.00099602
4,347,183,6200,2,1,-8.5,0,8.5,0,0,6,0,2,1,0.4501338,60.00099602
4,348,158,5500,2,2,8.5,0,8.5,0,1,6,0,3,1,0.4501077,60.00099602
4,349,354,12500,2,2,-8.5,0,-8.5,0,1,5,45,2,1,0.5833815,60.00099602
4,350,531,12855,1,1,-8.5,0,8.5,0,0,5,45,4,0,0.4000273,60.00099602
4,351,336,12000,2,1,-8.5,0,-8.5,0,1,5,45,2,1,0.5666425,60.00099602
4,352,35,1000,2,1,-8.5,0,8.5,0,0,5,45,4,1,0.5166235,60.00099602
4,353,124,4100,2,1,8.5,0,8.5,0,1,6,0,3,1,0.5333879,60.00099602
4,354,469,3355,1,2,8.5,0,-8.5,0,0,5,45,4,1,0.4833581,60.00099602
4,355,135,4300,2,1,-8.5,0,8.5,0,0,5,45,1,1,0.5167349,60.00099602
4,356,567,17355,1,1,-8.5,0,8.5,0,0,6,0,1,1,0.500013,60.00099602
4,357,211,7100,2,1,8.5,0,-8.5,0,0,5,45,1,1,0.4833162,60.00099602
4,358,277,9600,2,2,8.5,0,-8.5,0,0,6,0,2,1,0.5000526,60.00099602
4,359,412,15200,2,1,8.5,0,8.5,0,1,6,0,2,1,0.4667092,60.00099602
4,360,443,1255,1,1,-8.5,0,8.5,0,0,5,45,3,1,0.4833391,60.00099602
4,361,523,12355,1,1,8.5,0,-8.5,0,0,5,45,4,1,0.5834263,60.00099602
4,362,157,5500,2,2,8.5,0,-8.5,0,0,5,45,2,1,0.5001227,60.00099602
4,363,465,3155,1,2,8.5,0,-8.5,0,0,6,0,4,1,0.4834596,60.00099602
4,364,125,4100,2,2,-8.5,0,8.5,0,0,6,0,3,1,0.5167253,60.00099602
4,365,316,11100,2,1,8.5,0,8.5,0,1,6,0,4,1,0.5167163,60.00099602
4,366,59,2000,2,1,-8.5,0,8.5,0,0,5,45,4,1,0.4833885,60.00099602
4,367,202,6900,2,2,8.5,0,8.5,0,1,5,45,1,1,0.466797,60.00099602
4,368,136,4500,2,1,8.5,0,8.5,0,1,5,45,3,1,0.4834023,60.00099602
4,369,225,7600,2,2,8.5,0,-8.5,0,0,6,0,3,1,0.583351,60.00099602
4,370,496,10355,1,1,8.5,0,8.5,0,1,6,0,3,1,0.5667924,60.00099602
4,371,33,1000,2,2,8.5,0,-8.5,0,0,5,45,2,1,0.4334513,60.00099602
4,372,159,5500,2,1,-8.5,0,8.5,0,0,6,0,2,1,0.4167328,60.00099602
4,373,62,2200,2,2,8.5,0,8.5,0,1,6,0,2,1,0.4667505,60.00099602
4,374,543,13255,1,1,-8.5,0,8.5,0,0,5,45,3,1,0.4352204,60.00099602
4,375,8,300,2,1,-8.5,0,-8.5,0,1,6,0,1,1,0.4667451,60.00099602
4,376,128,4200,2,1,-8.5,0,-8.5,0,1,6,0,1,1,0.4500328,60.00099602
4,377,548,14055,1,1,-8.5,0,-8.5,0,1,6,0,1,1,0.3999923,60.00099602
4,378,535,13055,1,1,8.5,0,-8.5,0,0,5,45,3,1,0.6014615,60.00099602
4,379,249,8400,2,2,8.5,0,-8.5,0,0,6,0,2,1,0.4667041,60.00099602
4,380,566,17355,1,2,8.5,0,8.5,0,1,6,0,2,1,0.4834128,60.00099602
4,381,503,10455,1,1,-8.5,0,8.5,0,0,6,0,2,1,0.5167608,60.00099602
4,382,201,6900,2,2,8.5,0,-8.5,0,0,5,45,2,1,0.5500023,60.00099602
4,383,306,10800,2,2,-8.5,0,-8.5,0,1,5,45,3,1,0.4667928,60.00099602
4,384,263,9100,2,1,-8.5,0,8.5,0,0,5,45,2,1,0.601434,60.00099602
4,385,112,3700,2,1,8.5,0,8.5,0,1,5,45,4,1,0.5000833,60.00099602
4,386,120,4000,2,1,-8.5,0,-8.5,0,1,6,0,1,1,0.5000891,60.00099602
4,387,499,10355,1,1,8.5,0,-8.5,0,0,5,45,3,1,0.5166528,60.00099602
4,388,134,4300,2,2,8.5,0,8.5,0,1,6,0,4,1,0.4343769,60.00099602
4,389,219,7300,2,1,-8.5,0,8.5,0,0,6,0,1,1,0.5341119,60.00099602
4,390,555,14155,1,1,-8.5,0,8.5,0,0,6,0,1,1,0.5000355,60.00099602
4,391,309,10900,2,2,8.5,0,-8.5,0,0,5,45,2,1,0.5000311,60.00099602
4,392,348,12400,2,1,-8.5,0,-8.5,0,1,6,0,3,1,0.4500698,60.00099602
4,393,19,500,2,1,8.5,0,-8.5,0,0,5,45,4,1,0.5000289,60.00099602
4,394,2,100,2,2,8.5,0,8.5,0,1,6,0,1,1,0.4000657,60.00099602
4,395,238,8000,2,2,8.5,0,8.5,0,1,6,0,4,1,0.433382,60.00099602
4,396,556,14355,1,1,8.5,0,8.5,0,1,6,0,2,1,0.4682283,60.00099602
4,397,455,2255,1,1,-8.5,0,8.5,0,0,5,45,4,1,0.5500226,60.00099602
4,398,361,12700,2,2,8.5,0,-8.5,0,0,6,0,1,1,0.4668058,60.00099602
4,399,313,11000,2,2,8.5,0,-8.5,0,0,6,0,3,1,0.5001035,60.00099602
4,400,42,1300,2,2,-8.5,0,-8.5,0,1,5,45,3,1,0.5001344,60.00099602
4,401,326,11500,2,2,8.5,0,8.5,0,1,6,0,1,1,0.4333771,60.00099602
4,402,41,1300,2,2,-8.5,0,8.5,0,0,5,45,1,1,0.5000726,60.00099602
4,403,60,2200,2,1,-8.5,0,-8.5,0,1,5,45,3,1,0.5001364,60.00099602
4,404,207,7000,2,1,-8.5,0,8.5,0,0,6,0,2,1,0.4834565,60.00099602
4,405,129,4200,2,2,8.5,0,-8.5,0,0,5,45,2,1,0.3668084,60.00099602
4,406,106,3500,2,2,8.5,0,8.5,0,1,6,0,4,1,0.3667989,60.00099602
4,407,407,14600,2,1,-8.5,0,8.5,0,0,5,45,2,1,0.4334748,60.00099602
