ID,trials.thisTrialN,cue_image_id,Face_Set_Code,Face_Type_Code,cue_position_x,cue_position_y,target_position_x,target_position_y,conguruence,orientation,rectangle_color,Experiment_Trials_button.corr,Experiment_Trials_button.rt,frameRate
2,0,62,2,2,8.5,0,-8.5,0,0,45,1,1,0.5167945,60.00456035
2,1,3100,1,1,-8.5,0,8.5,0,0,0,2,1,0.4667121,60.00456035
2,2,107,2,1,-8.5,0,-8.5,0,1,0,1,1,0.4000231,60.00456035
2,3,121,2,1,8.5,0,8.5,0,1,0,2,1,0.4500423,60.00456035
2,4,14300,1,1,8.5,0,8.5,0,1,45,3,1,0.4166874,60.00456035
2,5,117,2,1,-8.5,0,8.5,0,0,45,4,1,0.4333873,60.00456035
2,6,10100,1,1,-8.5,0,8.5,0,0,45,2,1,0.3499756,60.00456035
2,7,12800,1,1,-8.5,0,-8.5,0,1,0,1,1,0.3834101,60.00456035
2,8,38,2,2,8.5,0,8.5,0,1,0,1,1,0.3834996,60.00456035
2,9,121,2,1,8.5,0,-8.5,0,0,45,2,1,0.4521215,60.00456035
2,10,1,2,1,-8.5,0,-8.5,0,1,45,4,1,0.4834471,60.00456035
2,11,76,2,1,-8.5,0,8.5,0,0,0,1,1,0.400119,60.00456035
2,12,29,2,1,-8.5,0,-8.5,0,1,45,3,1,0.4833681,60.00456035
2,13,84,2,2,8.5,0,-8.5,0,0,45,1,1,0.4166894,60.00456035
2,14,3100,1,2,8.5,0,-8.5,0,0,45,4,1,0.416748,60.00456035
2,15,95,2,2,8.5,0,8.5,0,1,45,4,1,0.3012616,60.00456035
2,16,48,2,1,-8.5,0,8.5,0,0,0,4,0,0.3000285,60.00456035
2,17,96,2,1,-8.5,0,8.5,0,0,45,3,1,0.4167035,60.00456035
2,18,31,2,1,-8.5,0,-8.5,0,1,45,3,1,0.4833739,60.00456035
2,19,9200,1,1,-8.5,0,-8.5,0,1,45,1,0,0.4166962,60.00456035
2,20,36,2,2,8.5,0,-8.5,0,0,45,1,1,0.5333223,60.00456035
2,21,60,2,2,-8.5,0,-8.5,0,1,45,1,1,0.4001265,60.00456035
2,22,13800,1,1,8.5,0,8.5,0,1,0,2,1,0.4666671,60.00456035
2,23,2,2,1,8.5,0,-8.5,0,0,45,2,1,0.4834187,60.00456035
2,24,40,2,2,8.5,0,8.5,0,1,0,2,1,0.4167855,60.00456035
2,25,107,2,1,-8.5,0,8.5,0,0,0,4,1,0.5167287,60.00456035
2,26,13100,1,2,8.5,0,-8.5,0,0,0,3,1,0.3667935,60.00456035
2,27,14000,1,1,-8.5,0,-8.5,0,1,0,1,1,0.3833851,60.00456035
2,28,52,2,1,-8.5,0,-8.5,0,1,0,2,1,0.3334479,60.00456035
2,29,13800,1,2,-8.5,0,-8.5,0,1,45,3,0,0.3334128,60.00456035
2,30,16,2,1,-8.5,0,-8.5,0,1,45,4,1,0.6000168,60.00456035
2,31,77,2,2,8.5,0,-8.5,0,0,45,2,1,0.4833618,60.00456035
2,32,3,2,2,8.5,0,-8.5,0,0,0,2,1,0.4001201,60.00456035
2,33,27,2,2,-8.5,0,-8.5,0,1,45,2,1,0.5185277,60.00456035
2,34,158,2,2,-8.5,0,8.5,0,0,0,2,1,0.4347731,60.00456035
2,35,129,2,1,8.5,0,8.5,0,1,0,3,1,0.4000413,60.00456035
2,36,8,2,1,-8.5,0,-8.5,0,1,0,3,1,0.4015759,60.00456035
2,37,11,2,1,-8.5,0,8.5,0,0,45,3,1,0.4500487,60.00456035
2,38,61,2,2,8.5,0,8.5,0,1,0,1,1,0.4167195,60.00456035
2,39,10300,1,1,8.5,0,8.5,0,1,0,4,1,0.4333404,60.00456035
2,40,57,2,2,8.5,0,8.5,0,1,45,3,1,0.4501331,60.00456035
2,41,25,2,2,8.5,0,8.5,0,1,0,2,1,0.4667172,60.00456035
2,42,120,2,2,8.5,0,8.5,0,1,45,2,1,0.48344,60.00456035
2,43,2200,1,2,8.5,0,8.5,0,1,45,4,1,0.5333627,60.00456035
2,44,400,1,1,8.5,0,8.5,0,1,45,2,1,0.4013478,60.00456035
2,45,10300,1,1,8.5,0,-8.5,0,0,0,1,1,0.3667202,60.00456035
2,46,47,2,1,-8.5,0,-8.5,0,1,45,3,0,0.333356,60.00456035
2,47,13100,1,2,8.5,0,8.5,0,1,0,3,1,0.483407,60.00456035
2,48,47,2,1,-8.5,0,8.5,0,0,45,4,1,0.3834681,60.00456035
2,49,113,2,1,-8.5,0,-8.5,0,1,0,3,1,0.4834395,60.00456035
2,50,70,2,2,8.5,0,8.5,0,1,45,1,1,0.5167529,60.00456035
2,51,72,2,1,-8.5,0,-8.5,0,1,0,4,1,0.433381,60.00456035
2,52,105,2,1,8.5,0,-8.5,0,0,0,2,1,0.4333727,60.00456035
2,53,76,2,1,-8.5,0,-8.5,0,1,0,4,1,0.3667317,60.00456035
2,54,100,2,1,-8.5,0,8.5,0,0,45,2,1,0.5666471,60.00456035
2,55,28,2,2,8.5,0,-8.5,0,0,0,1,1,0.4166338,60.00456035
2,56,28,2,1,-8.5,0,8.5,0,0,0,3,1,0.5167212,60.00456035
2,57,60,2,1,8.5,0,8.5,0,1,45,1,1,0.450131,60.00456035
2,58,98,2,2,-8.5,0,-8.5,0,1,45,3,1,0.583322,60.00456035
2,59,11,2,1,-8.5,0,-8.5,0,1,0,1,1,0.516796,60.00456035
2,60,125,2,1,8.5,0,8.5,0,1,0,4,1,0.3833976,60.00456035
2,61,57,2,2,8.5,0,-8.5,0,0,45,1,1,0.5833566,60.00456035
2,62,127,2,2,8.5,0,-8.5,0,0,0,1,1,0.650063,60.00456035
2,63,124,2,1,-8.5,0,8.5,0,0,45,4,1,0.4000176,60.00456035
2,64,98,2,1,8.5,0,8.5,0,1,0,2,1,0.4333745,60.00456035
2,65,143,2,1,-8.5,0,8.5,0,0,0,2,1,0.4001064,60.00456035
2,66,1800,1,2,8.5,0,8.5,0,1,45,3,1,0.3833557,60.00456035
2,67,17300,1,2,8.5,0,8.5,0,1,0,2,1,0.4501007,60.00456035
2,68,1,2,2,8.5,0,-8.5,0,0,45,1,1,0.4166139,60.00456035
2,69,2200,1,1,-8.5,0,-8.5,0,1,45,3,1,0.6685194,60.00456035
2,70,81,2,2,8.5,0,8.5,0,1,0,4,1,0.3517099,60.00456035
2,71,6300,1,1,-8.5,0,-8.5,0,1,45,4,0,0.3167895,60.00456035
2,72,94,2,1,8.5,0,-8.5,0,0,45,2,1,0.6343647,60.00456035
2,73,43,2,1,-8.5,0,-8.5,0,1,0,4,1,0.450018,60.00456035
2,74,18,2,1,8.5,0,-8.5,0,0,0,4,1,0.4333847,60.00456035
2,75,49,2,2,-8.5,0,8.5,0,0,0,4,1,0.4000318,60.00456035
2,76,87,2,1,8.5,0,-8.5,0,0,0,3,1,0.43337,60.00456035
2,77,76,2,2,8.5,0,-8.5,0,0,45,1,1,0.4501011,60.00456035
2,78,12300,1,1,8.5,0,8.5,0,1,0,1,1,0.7000017,60.00456035
2,79,6800,1,1,-8.5,0,8.5,0,0,0,3,1,0.5334169,60.00456035
2,80,84,2,1,-8.5,0,-8.5,0,1,0,2,1,0.3667663,60.00456035
2,81,162,2,1,-8.5,0,8.5,0,0,45,4,1,0.4667538,60.00456035
2,82,122,2,1,-8.5,0,-8.5,0,1,45,4,1,0.434208,60.00456035
2,83,60,2,2,-8.5,0,8.5,0,0,0,3,1,0.4166369,60.00456035
2,84,30,2,2,-8.5,0,-8.5,0,1,45,1,1,0.6001361,60.00456035
2,85,152,2,2,-8.5,0,-8.5,0,1,45,3,1,0.3999934,60.00456035
2,86,146,2,1,-8.5,0,8.5,0,0,45,3,1,0.5000162,60.00456035
2,87,86,2,1,-8.5,0,-8.5,0,1,0,1,1,0.4167791,60.00456035
2,88,66,2,1,-8.5,0,-8.5,0,1,0,4,1,0.4182296,60.00456035
2,89,20,2,2,8.5,0,8.5,0,1,45,3,1,0.6000181,60.00456035
2,90,12100,1,2,8.5,0,8.5,0,1,0,3,0,0.3333897,60.00456035
2,91,2200,1,2,8.5,0,-8.5,0,0,45,1,1,0.68429,60.00456035
2,92,111,2,1,8.5,0,8.5,0,1,45,4,1,0.566782,60.00456035
2,93,56,2,2,-8.5,0,8.5,0,0,0,1,1,0.4168261,60.00456035
2,94,126,2,2,8.5,0,-8.5,0,0,0,3,1,0.3500281,60.00456035
2,95,150,2,1,-8.5,0,-8.5,0,1,45,4,1,0.5000744,60.00456035
2,96,143,2,2,8.5,0,-8.5,0,0,0,3,1,0.4001295,60.00456035
2,97,6800,1,2,8.5,0,-8.5,0,0,0,4,1,0.3833774,60.00456035
2,98,12300,1,2,-8.5,0,-8.5,0,1,0,4,1,0.3684821,60.00456035
2,99,132,2,2,8.5,0,8.5,0,1,0,3,1,0.4333901,60.00456035
2,100,98,2,1,8.5,0,-8.5,0,0,0,1,1,0.3167119,60.00456035
2,101,36,2,1,-8.5,0,8.5,0,0,0,2,1,0.5333345,60.00456035
2,102,70,2,1,-8.5,0,-8.5,0,1,45,1,1,0.3667026,60.00456035
2,103,41,2,2,-8.5,0,8.5,0,0,0,2,1,0.3833351,60.00456035
2,104,150,2,2,8.5,0,8.5,0,1,45,3,1,0.5333363,60.00456035
2,105,96,2,2,8.5,0,-8.5,0,0,0,3,1,0.4501114,60.00456035
2,106,41,2,1,8.5,0,8.5,0,1,45,4,1,0.4834055,60.00456035
2,107,79,2,2,-8.5,0,-8.5,0,1,0,1,1,0.4667537,60.00456035
2,108,26,2,1,-8.5,0,8.5,0,0,0,2,1,0.4001346,60.00456035
2,109,17200,1,1,-8.5,0,-8.5,0,1,45,4,1,0.501139,60.00456035
2,110,55,2,1,-8.5,0,8.5,0,0,0,4,1,0.4332328,60.00456035
2,111,75,2,2,-8.5,0,8.5,0,0,45,2,1,0.4167638,60.00456035
2,112,79,2,1,8.5,0,8.5,0,1,45,3,1,0.3500674,60.00456035
2,113,23,2,1,8.5,0,-8.5,0,0,45,2,0,0.3166958,60.00456035
2,114,146,2,1,-8.5,0,-8.5,0,1,0,3,1,0.400018,60.00456035
2,115,16,2,1,-8.5,0,8.5,0,0,45,3,1,0.4666351,60.00456035
2,116,22,2,2,8.5,0,8.5,0,1,45,4,0,0.50002,60.00456035
2,117,14100,1,1,-8.5,0,8.5,0,0,45,2,1,0.7333461,60.00456035
2,118,11,2,2,8.5,0,-8.5,0,0,45,4,1,0.5000308,60.00456035
2,119,27,2,2,-8.5,0,8.5,0,0,0,2,1,0.416783,60.00456035
2,120,161,2,2,8.5,0,-8.5,0,0,0,2,1,0.3506183,60.00456035
2,121,7,2,2,8.5,0,-8.5,0,0,45,3,1,0.4334485,60.00456035
2,122,61,2,2,8.5,0,-8.5,0,0,45,1,1,0.4500699,60.00456035
2,123,14100,1,2,8.5,0,8.5,0,1,45,1,1,0.366669,60.00456035
2,124,49,2,1,8.5,0,8.5,0,1,45,1,1,0.4167795,60.00456035
2,125,108,2,1,8.5,0,8.5,0,1,45,2,1,0.3000702,60.00456035
2,126,43,2,2,8.5,0,-8.5,0,0,45,2,1,0.5500196,60.00456035
2,127,30,2,1,8.5,0,8.5,0,1,0,2,1,0.6999612,60.00456035
2,128,68,2,1,8.5,0,-8.5,0,0,0,1,1,0.5175225,60.00456035
2,129,150,2,1,-8.5,0,8.5,0,0,45,1,1,0.5334616,60.00456035
2,130,132,2,1,-8.5,0,-8.5,0,1,0,4,1,0.4334836,60.00456035
2,131,138,2,2,8.5,0,8.5,0,1,45,2,1,0.6333915,60.00456035
2,132,47,2,2,8.5,0,8.5,0,1,45,4,1,0.6000187,60.00456035
2,133,10300,1,2,-8.5,0,-8.5,0,1,45,1,1,0.4833949,60.00456035
2,134,12100,1,1,-8.5,0,8.5,0,0,0,4,1,0.500001,60.00456035
2,135,35,2,1,-8.5,0,8.5,0,0,0,4,1,0.433471,60.00456035
2,136,157,2,2,8.5,0,-8.5,0,0,0,1,1,0.3667734,60.00456035
2,137,131,2,1,-8.5,0,8.5,0,0,0,1,1,0.3501311,60.00456035
2,138,42,2,1,-8.5,0,-8.5,0,1,0,2,1,0.4334968,60.00456035
2,139,32,2,1,-8.5,0,8.5,0,0,45,4,1,0.6667947,60.00456035
2,140,3100,1,2,8.5,0,8.5,0,1,0,1,1,0.4333796,60.00456035
2,141,113,2,1,-8.5,0,8.5,0,0,45,4,1,0.6000492,60.00456035
2,142,105,2,2,-8.5,0,-8.5,0,1,45,4,1,0.4334099,60.00456035
2,143,96,2,2,8.5,0,8.5,0,1,45,4,1,0.316715,60.00456035
2,144,38,2,2,8.5,0,-8.5,0,0,45,2,1,0.5001372,60.00456035
2,145,20,2,1,-8.5,0,8.5,0,0,0,1,1,0.6167116,60.00456035
2,146,9,2,2,-8.5,0,-8.5,0,1,45,4,1,0.7666553,60.00456035
2,147,144,2,1,8.5,0,8.5,0,1,45,2,1,0.6500967,60.00456035
2,148,136,2,1,-8.5,0,8.5,0,0,0,1,1,0.4501845,60.00456035
2,149,132,2,1,-8.5,0,8.5,0,0,45,4,1,0.4333352,60.00456035
2,150,3,2,2,8.5,0,8.5,0,1,0,3,1,0.4668014,60.00456035
2,151,116,2,1,8.5,0,8.5,0,1,45,4,1,0.450034,60.00456035
2,152,5,2,2,-8.5,0,8.5,0,0,45,1,1,0.6182122,60.00456035
2,153,58,2,2,8.5,0,-8.5,0,0,45,4,1,0.5334374,60.00456035
2,154,77,2,2,8.5,0,8.5,0,1,45,3,1,0.4854,60.00456035
2,155,47,2,2,8.5,0,-8.5,0,0,45,1,1,0.4843539,60.00456035
2,156,150,2,2,8.5,0,-8.5,0,0,45,4,1,0.4500275,60.00456035
2,157,109,2,2,8.5,0,-8.5,0,0,45,2,1,0.4334207,60.00456035
2,158,45,2,1,8.5,0,-8.5,0,0,45,2,1,0.3500183,60.00456035
2,159,101,2,1,-8.5,0,8.5,0,0,0,1,1,0.3666357,60.00456035
2,160,10800,1,1,8.5,0,8.5,0,1,0,3,1,0.366633,60.00456035
2,161,83,2,1,8.5,0,8.5,0,1,0,1,1,0.3166439,60.00456035
2,162,13200,1,2,8.5,0,8.5,0,1,45,4,0,0.3166709,60.00456035
2,163,42,2,2,8.5,0,8.5,0,1,45,4,1,0.4333873,60.00456035
2,164,10400,1,1,-8.5,0,-8.5,0,1,45,3,1,0.4000511,60.00456035
2,165,2900,1,1,8.5,0,-8.5,0,0,0,2,1,0.4167033,60.00456035
2,166,2600,1,2,8.5,0,8.5,0,1,0,2,1,0.4342934,60.00456035
2,167,16,2,2,8.5,0,-8.5,0,0,45,4,1,0.4501389,60.00456035
2,168,108,2,2,-8.5,0,-8.5,0,1,0,4,1,0.5501334,60.00456035
2,169,115,2,1,-8.5,0,-8.5,0,1,0,2,1,0.4000321,60.00456035
2,170,3,2,1,-8.5,0,-8.5,0,1,0,1,1,0.3167381,60.00456035
2,171,83,2,2,-8.5,0,-8.5,0,1,0,2,1,0.3667737,60.00456035
2,172,45,2,2,-8.5,0,-8.5,0,1,0,3,1,0.4168024,60.00456035
2,173,105,2,2,-8.5,0,8.5,0,0,0,4,0,0.3833697,60.00456035
2,174,77,2,1,-8.5,0,-8.5,0,1,45,3,1,0.4834015,60.00456035
2,175,86,2,1,-8.5,0,8.5,0,0,0,3,1,0.4333466,60.00456035
2,176,35,2,1,-8.5,0,-8.5,0,1,45,3,1,0.6507945,60.00456035
2,177,6900,1,2,-8.5,0,8.5,0,0,45,1,1,0.4167018,60.00456035
2,178,143,2,2,8.5,0,8.5,0,1,0,4,1,0.4500884,60.00456035
2,179,161,2,2,8.5,0,8.5,0,1,0,2,1,0.3833085,60.00456035
2,180,2900,1,1,8.5,0,8.5,0,1,0,4,1,0.3833262,60.00456035
2,181,43,2,1,-8.5,0,8.5,0,0,0,3,1,0.5333614,60.00456035
2,182,28,2,1,-8.5,0,-8.5,0,1,0,1,1,0.3834607,60.00456035
2,183,11700,1,1,-8.5,0,-8.5,0,1,45,2,1,0.4334066,60.00456035
2,184,134,2,1,8.5,0,-8.5,0,0,0,4,1,0.4333929,60.00456035
2,185,3300,1,2,8.5,0,8.5,0,1,45,2,1,0.5001381,60.00456035
2,186,10800,1,2,-8.5,0,-8.5,0,1,0,2,1,0.5333376,60.00456035
2,187,4,2,1,-8.5,0,-8.5,0,1,45,3,1,0.4834182,60.00456035
2,188,2900,1,2,-8.5,0,-8.5,0,1,45,3,1,0.7166934,60.00456035
2,189,73,2,1,-8.5,0,8.5,0,0,0,4,1,0.4000386,60.00456035
2,190,13200,1,1,-8.5,0,-8.5,0,1,45,4,1,0.5166415,60.00456035
2,191,91,2,2,8.5,0,8.5,0,1,45,3,1,0.4000703,60.00456035
2,192,122,2,2,8.5,0,8.5,0,1,0,4,1,0.418289,60.00456035
2,193,80,2,1,-8.5,0,8.5,0,0,0,1,1,0.5000215,60.00456035
2,194,14100,1,1,-8.5,0,-8.5,0,1,0,1,1,0.3833797,60.00456035
2,195,110,2,2,8.5,0,-8.5,0,0,45,2,1,0.4172772,60.00456035
2,196,142,2,2,8.5,0,8.5,0,1,45,1,1,0.5000223,60.00456035
2,197,95,2,2,8.5,0,-8.5,0,0,0,3,1,0.4000343,60.00456035
2,198,91,2,1,-8.5,0,8.5,0,0,45,3,1,0.7851061,60.00456035
2,199,134,2,1,8.5,0,8.5,0,1,45,4,1,0.7001335,60.00456035
2,200,12500,1,2,8.5,0,-8.5,0,0,0,4,1,0.4333721,60.00456035
2,201,49,2,1,8.5,0,-8.5,0,0,0,4,1,0.3833707,60.00456035
2,202,37,2,2,-8.5,0,8.5,0,0,0,1,1,0.4333817,60.00456035
2,203,13800,1,2,-8.5,0,8.5,0,0,45,3,1,0.4333759,60.00456035
2,204,100,2,2,8.5,0,8.5,0,1,0,2,1,0.5849163,60.00456035
2,205,5,2,1,8.5,0,-8.5,0,0,0,2,1,0.5001309,60.00456035
2,206,48,2,2,8.5,0,8.5,0,1,0,2,1,0.4334576,60.00456035
2,207,132,2,2,8.5,0,-8.5,0,0,45,2,0,0.4168016,60.00456035
2,208,55,2,2,8.5,0,-8.5,0,0,0,2,1,0.4834575,60.00456035
2,209,95,2,1,-8.5,0,-8.5,0,1,0,2,1,0.7333451,60.00456035
2,210,83,2,1,8.5,0,-8.5,0,0,0,2,1,0.3001274,60.00456035
2,211,77,2,1,-8.5,0,8.5,0,0,0,1,1,0.3666131,60.00456035
2,212,17300,1,2,8.5,0,-8.5,0,0,0,2,1,0.3501365,60.00456035
2,213,17300,1,1,-8.5,0,-8.5,0,1,0,1,1,0.3513673,60.00456035
2,214,157,2,1,-8.5,0,8.5,0,0,45,1,1,0.4166226,60.00456035
2,215,20,2,1,-8.5,0,-8.5,0,1,0,2,1,0.450049,60.00456035
2,216,57,2,1,-8.5,0,-8.5,0,1,0,2,1,0.3833648,60.00456035
2,217,6300,1,2,8.5,0,8.5,0,1,0,1,1,0.5166988,60.00456035
2,218,69,2,1,-8.5,0,8.5,0,0,0,2,1,0.3667407,60.00456035
2,219,49,2,2,-8.5,0,-8.5,0,1,45,2,0,0.3333581,60.00456035
2,220,142,2,1,-8.5,0,8.5,0,0,45,4,1,0.7001187,60.00456035
2,221,29,2,1,-8.5,0,8.5,0,0,0,2,1,0.4333915,60.00456035
2,222,17,2,1,-8.5,0,-8.5,0,1,45,4,1,0.5000409,60.00456035
2,223,16,2,2,8.5,0,8.5,0,1,45,4,1,0.3667868,60.00456035
2,224,131,2,2,8.5,0,8.5,0,1,45,3,1,0.3499957,60.00456035
2,225,2200,1,1,-8.5,0,8.5,0,0,45,4,1,0.3333182,60.00456035
2,226,63,2,1,8.5,0,-8.5,0,0,45,4,1,0.4834215,60.00456035
2,227,12300,1,2,-8.5,0,8.5,0,0,0,3,1,0.4333725,60.00456035
2,228,122,2,2,8.5,0,-8.5,0,0,45,4,1,0.5667632,60.00456035
2,229,136,2,2,8.5,0,-8.5,0,0,0,1,1,0.4667239,60.00456035
2,230,95,2,1,-8.5,0,8.5,0,0,0,1,1,0.4001502,60.00456035
2,231,2600,1,2,8.5,0,-8.5,0,0,0,1,1,0.3334232,60.00456035
2,232,13200,1,2,8.5,0,-8.5,0,0,0,2,1,0.3501411,60.00456035
2,233,80,2,1,-8.5,0,-8.5,0,1,45,1,1,0.6333624,60.00456035
2,234,4100,1,1,8.5,0,8.5,0,1,0,3,1,0.4176599,60.00456035
2,235,125,2,1,8.5,0,-8.5,0,0,45,3,1,0.5166904,60.00456035
2,236,6900,1,2,-8.5,0,-8.5,0,1,0,4,1,0.433408,60.00456035
2,237,157,2,2,8.5,0,8.5,0,1,45,1,1,0.6334096,60.00456035
2,238,14000,1,2,8.5,0,8.5,0,1,0,3,1,0.4167744,60.00456035
2,239,26,2,2,8.5,0,8.5,0,1,45,3,1,0.6001281,60.00456035
2,240,13,2,1,8.5,0,-8.5,0,0,45,2,1,0.7000208,60.00456035
2,241,4100,1,1,8.5,0,-8.5,0,0,45,3,1,0.4516092,60.00456035
2,242,79,2,2,-8.5,0,8.5,0,0,45,3,1,0.4666924,60.00456035
2,243,65,2,2,8.5,0,8.5,0,1,0,4,1,0.6834188,60.00456035
2,244,131,2,1,-8.5,0,-8.5,0,1,45,3,1,0.4667833,60.00456035
2,245,83,2,2,-8.5,0,8.5,0,0,0,4,1,0.533446,60.00456035
2,246,10800,1,1,8.5,0,-8.5,0,0,0,2,1,0.5333866,60.00456035
2,247,144,2,1,8.5,0,-8.5,0,0,45,4,1,0.6348197,60.00456035
2,248,6300,1,1,-8.5,0,8.5,0,0,0,3,1,0.4833839,60.00456035
2,249,126,2,1,-8.5,0,-8.5,0,1,0,2,1,0.4166908,60.00456035
2,250,158,2,1,8.5,0,8.5,0,1,45,4,1,0.3518322,60.00456035
2,251,13,2,1,8.5,0,8.5,0,1,45,4,1,0.3332516,60.00456035
2,252,68,2,1,8.5,0,8.5,0,1,0,1,1,0.433374,60.00456035
2,253,31,2,2,8.5,0,-8.5,0,0,0,1,1,0.350038,60.00456035
2,254,63,2,1,8.5,0,8.5,0,1,0,4,1,0.4672338,60.00456035
2,255,7,2,2,8.5,0,8.5,0,1,45,3,1,0.4501419,60.00456035
2,256,52,2,1,-8.5,0,8.5,0,0,0,4,1,0.4834633,60.00456035
2,257,136,2,1,-8.5,0,-8.5,0,1,45,1,1,0.6000187,60.00456035
2,258,113,2,2,8.5,0,8.5,0,1,0,2,1,0.4667017,60.00456035
2,259,127,2,1,-8.5,0,8.5,0,0,0,4,1,0.450046,60.00456035
2,260,4,2,2,8.5,0,8.5,0,1,0,2,1,0.4000812,60.00456035
2,261,1,2,2,8.5,0,8.5,0,1,45,1,1,0.6667409,60.00456035
2,262,121,2,2,-8.5,0,-8.5,0,1,45,3,0,0.4518504,60.00456035
2,263,106,2,2,8.5,0,8.5,0,1,45,3,1,0.5833904,60.00456035
2,264,73,2,2,8.5,0,-8.5,0,0,45,3,1,0.4334031,60.00456035
2,265,109,2,1,-8.5,0,8.5,0,0,0,1,1,0.4334609,60.00456035
2,266,65,2,1,-8.5,0,-8.5,0,1,0,1,1,0.3833903,60.00456035
2,267,11700,1,1,-8.5,0,8.5,0,0,0,2,1,0.4834017,60.00456035
2,268,13100,1,1,-8.5,0,8.5,0,0,45,3,1,0.4334058,60.00456035
2,269,45,2,1,8.5,0,8.5,0,1,0,2,1,0.435321,60.00456035
2,270,10,2,2,8.5,0,8.5,0,1,45,3,1,0.333324,60.00456035
2,271,12100,1,2,8.5,0,-8.5,0,0,0,2,1,0.4334079,60.00456035
2,272,63,2,2,-8.5,0,8.5,0,0,0,1,1,0.4500487,60.00456035
2,273,1200,1,1,-8.5,0,-8.5,0,1,45,2,1,0.4166967,60.00456035
2,274,13,2,2,-8.5,0,8.5,0,0,45,2,1,0.5336974,60.00456035
2,275,141,2,1,8.5,0,8.5,0,1,0,3,1,0.46874,60.00456035
2,276,61,2,1,-8.5,0,8.5,0,0,45,2,0,0.3500121,60.00456035
2,277,33,2,1,8.5,0,8.5,0,1,0,1,1,0.5333773,60.00456035
2,278,66,2,2,8.5,0,-8.5,0,0,45,2,1,0.3667789,60.00456035
2,279,124,2,2,8.5,0,-8.5,0,0,45,4,1,0.4526249,60.00456035
2,280,127,2,1,-8.5,0,-8.5,0,1,0,1,1,0.3667131,60.00456035
2,281,48,2,2,8.5,0,-8.5,0,0,0,4,1,0.3166921,60.00456035
2,282,81,2,2,8.5,0,-8.5,0,0,45,3,1,0.4666796,60.00456035
2,283,22,2,1,-8.5,0,-8.5,0,1,45,4,1,0.3501452,60.00456035
2,284,9200,1,2,8.5,0,8.5,0,1,45,3,1,0.3668016,60.00456035
2,285,131,2,2,8.5,0,-8.5,0,0,0,3,1,0.3501263,60.00456035
2,286,5,2,2,-8.5,0,-8.5,0,1,0,2,0,0.3834428,60.00456035
2,287,138,2,1,-8.5,0,-8.5,0,1,45,1,1,0.3833158,60.00456035
2,288,68,2,2,-8.5,0,-8.5,0,1,0,2,1,0.4515775,60.00456035
2,289,144,2,2,-8.5,0,8.5,0,0,45,3,1,0.4000356,60.00456035
2,290,100,2,1,-8.5,0,-8.5,0,1,45,4,1,0.4667168,60.00456035
2,291,3100,1,1,-8.5,0,-8.5,0,1,0,2,1,0.3667636,60.00456035
2,292,110,2,2,8.5,0,8.5,0,1,0,2,1,0.4166952,60.00456035
2,293,27,2,1,8.5,0,8.5,0,1,45,2,1,0.3501421,60.00456035
2,294,29,2,2,8.5,0,-8.5,0,0,45,4,1,0.4501406,60.00456035
2,295,79,2,1,8.5,0,-8.5,0,0,0,2,1,0.4333414,60.00456035
2,296,134,2,2,-8.5,0,-8.5,0,1,0,1,1,0.4500364,60.00456035
2,297,86,2,2,8.5,0,8.5,0,1,45,4,1,0.5166869,60.00456035
2,298,4,2,1,-8.5,0,8.5,0,0,0,4,1,0.5001281,60.00456035
2,299,56,2,1,8.5,0,8.5,0,1,45,1,1,0.5000194,60.00456035
2,300,138,2,2,8.5,0,-8.5,0,0,45,2,1,0.451025,60.00456035
2,301,94,2,2,-8.5,0,-8.5,0,1,45,4,1,0.6333792,60.00456035
2,302,2100,1,1,8.5,0,8.5,0,1,0,2,1,0.4504999,60.00456035
2,303,56,2,2,-8.5,0,-8.5,0,1,0,4,1,0.5692401,60.00456035
2,304,105,2,1,8.5,0,8.5,0,1,45,4,1,0.4001127,60.00456035
2,305,11700,1,2,8.5,0,8.5,0,1,45,4,1,0.5333935,60.00456035
2,306,25,2,1,-8.5,0,8.5,0,0,45,1,1,0.3334274,60.00456035
2,307,32,2,2,8.5,0,8.5,0,1,45,4,1,0.3500032,60.00456035
2,308,146,2,2,8.5,0,-8.5,0,0,45,2,0,0.3334029,60.00456035
2,309,60,2,1,8.5,0,-8.5,0,0,45,1,1,0.4834209,60.00456035
2,310,116,2,1,8.5,0,-8.5,0,0,45,4,1,0.3667745,60.00456035
2,311,94,2,1,8.5,0,8.5,0,1,45,3,1,0.3501452,60.00456035
2,312,127,2,2,8.5,0,8.5,0,1,45,3,1,0.3500301,60.00456035
2,313,153,2,1,-8.5,0,8.5,0,0,45,2,1,0.3333794,60.00456035
2,314,62,2,1,-8.5,0,8.5,0,0,45,4,1,0.3332576,60.00456035
2,315,2900,1,2,-8.5,0,8.5,0,0,0,2,1,0.4834299,60.00456035
2,316,80,2,2,8.5,0,-8.5,0,0,45,1,1,0.4833719,60.00456035
2,317,58,2,1,-8.5,0,8.5,0,0,0,2,1,0.4685436,60.00456035
2,318,111,2,1,8.5,0,-8.5,0,0,0,3,1,0.5334106,60.00456035
2,319,6800,1,1,-8.5,0,-8.5,0,1,45,3,1,0.5179878,60.00456035
2,320,125,2,2,-8.5,0,8.5,0,0,45,3,1,0.3667139,60.00456035
2,321,129,2,2,-8.5,0,8.5,0,0,45,3,1,0.4000561,60.00456035
2,322,87,2,1,8.5,0,8.5,0,1,0,1,1,0.5001715,60.00456035
2,323,93,2,2,8.5,0,-8.5,0,0,0,3,0,0.3168058,60.00456035
2,324,69,2,2,8.5,0,8.5,0,1,45,4,1,0.3667163,60.00456035
2,325,158,2,2,-8.5,0,-8.5,0,1,0,1,1,0.3834267,60.00456035
2,326,5,2,1,8.5,0,8.5,0,1,45,3,1,0.5166709,60.00456035
2,327,93,2,2,8.5,0,8.5,0,1,45,3,1,0.3666558,60.00456035
2,328,1,2,1,-8.5,0,8.5,0,0,0,4,1,0.483434,60.00456035
2,329,61,2,1,-8.5,0,-8.5,0,1,0,3,1,0.3667026,60.00456035
2,330,142,2,2,8.5,0,-8.5,0,0,45,1,1,0.5343333,60.00456035
2,331,13000,1,1,8.5,0,-8.5,0,0,0,4,1,0.5167394,60.00456035
2,332,81,2,1,-8.5,0,-8.5,0,1,0,3,1,0.3501335,60.00456035
2,333,7,2,1,-8.5,0,8.5,0,0,0,4,1,0.4667913,60.00456035
2,334,6900,1,1,8.5,0,8.5,0,1,45,4,1,0.5001109,60.00456035
2,335,126,2,1,-8.5,0,8.5,0,0,0,4,1,0.4166853,60.00456035
2,336,109,2,2,8.5,0,8.5,0,1,0,1,1,0.4166512,60.00456035
2,337,10800,1,2,-8.5,0,8.5,0,0,45,4,1,0.8166858,60.00456035
2,338,8,2,1,-8.5,0,8.5,0,0,0,1,1,0.4333826,60.00456035
2,339,141,2,2,-8.5,0,-8.5,0,1,45,1,0,0.4166692,60.00456035
2,340,4100,1,2,-8.5,0,-8.5,0,1,0,2,1,0.483382,60.00456035
2,341,106,2,2,8.5,0,-8.5,0,0,0,1,1,0.4999634,60.00456035
2,342,144,2,2,-8.5,0,-8.5,0,1,0,3,1,0.4333824,60.00456035
2,343,124,2,2,8.5,0,8.5,0,1,45,2,1,0.3500443,60.00456035
2,344,161,2,1,-8.5,0,-8.5,0,1,45,1,1,0.5015373,60.00456035
2,345,13800,1,1,8.5,0,-8.5,0,0,45,2,1,0.4000273,60.00456035
2,346,96,2,1,-8.5,0,-8.5,0,1,45,1,1,0.3834011,60.00456035
2,347,3300,1,2,8.5,0,-8.5,0,0,45,3,1,0.4000126,60.00456035
2,348,1200,1,2,8.5,0,-8.5,0,0,0,4,1,0.4680519,60.00456035
2,349,55,2,2,8.5,0,8.5,0,1,0,1,1,0.7501324,60.00456035
2,350,66,2,2,8.5,0,8.5,0,1,0,1,1,0.299996,60.00456035
2,351,400,1,2,-8.5,0,8.5,0,0,45,4,1,0.4333715,60.00456035
2,352,20,2,2,8.5,0,-8.5,0,0,0,2,1,0.4341664,60.00456035
2,353,11,2,2,8.5,0,8.5,0,1,0,3,1,0.4500451,60.00456035
2,354,52,2,2,8.5,0,8.5,0,1,45,3,0,0.3333806,60.00456035
2,355,14300,1,2,-8.5,0,8.5,0,0,0,2,1,0.4000364,60.00456035
2,356,27,2,1,8.5,0,-8.5,0,0,0,4,1,0.5001,60.00456035
2,357,71,2,2,-8.5,0,8.5,0,0,45,3,1,0.333441,60.00456035
2,358,9200,1,2,8.5,0,-8.5,0,0,0,4,1,0.3833745,60.00456035
2,359,91,2,1,-8.5,0,-8.5,0,1,0,1,1,0.3834646,60.00456035
2,360,117,2,2,8.5,0,8.5,0,1,0,4,1,0.3346379,60.00456035
2,361,17200,1,1,-8.5,0,8.5,0,0,0,2,1,0.367813,60.00456035
2,362,10400,1,2,8.5,0,-8.5,0,0,45,1,1,0.4167941,60.00456035
2,363,37,2,1,8.5,0,8.5,0,1,45,1,1,0.383455,60.00456035
2,364,146,2,2,8.5,0,8.5,0,1,0,1,0,0.3001293,60.00456035
2,365,18,2,2,-8.5,0,8.5,0,0,0,3,1,0.4334277,60.00456035
2,366,32,2,1,-8.5,0,-8.5,0,1,0,3,1,0.4166438,60.00456035
2,367,12100,1,1,-8.5,0,-8.5,0,1,45,3,1,0.6499792,60.00456035
2,368,152,2,2,-8.5,0,8.5,0,0,0,3,1,0.4667689,60.00456035
2,369,14000,1,1,-8.5,0,8.5,0,0,0,1,1,0.53342,60.00456035
2,370,36,2,1,-8.5,0,-8.5,0,1,0,4,1,0.5167034,60.00456035
2,371,107,2,2,8.5,0,8.5,0,1,0,1,1,0.4667947,60.00456035
2,372,62,2,1,-8.5,0,-8.5,0,1,45,3,1,0.4500826,60.00456035
2,373,6800,1,2,8.5,0,8.5,0,1,0,1,1,0.4333911,60.00456035
2,374,58,2,1,-8.5,0,-8.5,0,1,0,1,1,0.433314,60.00456035
2,375,100,2,2,8.5,0,-8.5,0,0,0,3,1,0.4500275,60.00456035
2,376,87,2,2,-8.5,0,-8.5,0,1,45,1,1,0.3666776,60.00456035
2,377,91,2,2,8.5,0,-8.5,0,0,0,2,1,0.3833882,60.00456035
2,378,35,2,2,8.5,0,8.5,0,1,0,3,1,0.4334644,60.00456035
2,379,38,2,1,-8.5,0,8.5,0,0,45,3,1,0.9183322,60.00456035
2,380,10,2,1,-8.5,0,8.5,0,0,0,2,1,0.4334677,60.00456035
2,381,6900,1,1,8.5,0,-8.5,0,0,45,3,1,0.4334431,60.00456035
2,382,75,2,2,-8.5,0,-8.5,0,1,45,1,1,0.3841131,60.00456035
2,383,31,2,1,-8.5,0,8.5,0,0,45,4,1,0.4501284,60.00456035
2,384,136,2,2,8.5,0,8.5,0,1,45,4,1,0.386087,60.00456035
2,385,12500,1,1,-8.5,0,-8.5,0,1,0,3,1,0.583359,60.00456035
2,386,80,2,2,8.5,0,8.5,0,1,45,4,1,0.4834191,60.00456035
2,387,108,2,2,-8.5,0,8.5,0,0,45,2,1,0.3500507,60.00456035
2,388,10500,1,2,8.5,0,8.5,0,1,0,1,1,0.3834021,60.00456035
2,389,55,2,1,-8.5,0,-8.5,0,1,45,3,1,0.4333913,60.00456035
2,390,69,2,1,-8.5,0,-8.5,0,1,45,3,1,0.3667441,60.00456035
2,391,2,2,1,8.5,0,8.5,0,1,0,2,1,0.3845619,60.00456035
2,392,2100,1,2,-8.5,0,-8.5,0,1,0,2,1,0.4667623,60.00456035
2,393,10400,1,2,8.5,0,8.5,0,1,0,4,1,0.4006282,60.00456035
2,394,134,2,2,-8.5,0,8.5,0,0,0,1,1,0.483347,60.00456035
2,395,25,2,2,8.5,0,-8.5,0,0,45,2,1,0.383379,60.00456035
2,396,22,2,1,-8.5,0,8.5,0,0,45,3,1,0.3500629,60.00456035
2,397,29,2,2,8.5,0,8.5,0,1,0,1,1,0.4166809,60.00456035
2,398,110,2,1,-8.5,0,8.5,0,0,0,3,1,0.4166397,60.00456035
2,399,121,2,2,-8.5,0,8.5,0,0,0,2,1,0.3667045,60.00456035
2,400,120,2,2,8.5,0,-8.5,0,0,45,1,1,0.333408,60.00456035
2,401,42,2,2,8.5,0,-8.5,0,0,0,3,1,0.5500331,60.00456035
2,402,14300,1,2,-8.5,0,-8.5,0,1,45,1,1,0.4500385,60.00456035
2,403,1800,1,1,-8.5,0,8.5,0,0,0,1,1,0.4334008,60.00456035
2,404,9,2,1,8.5,0,8.5,0,1,0,4,1,0.3667461,60.00456035
2,405,10100,1,2,8.5,0,-8.5,0,0,0,2,0,0.3834648,60.00456035
2,406,14300,1,1,8.5,0,-8.5,0,0,0,2,1,0.4833202,60.00456035
2,407,65,2,1,-8.5,0,8.5,0,0,0,1,1,0.7167646,60.00456035
2,408,94,2,2,-8.5,0,8.5,0,0,45,2,1,0.4166215,60.00456035
2,409,12300,1,1,8.5,0,-8.5,0,0,0,3,1,0.3832898,60.00456035
2,410,87,2,2,-8.5,0,8.5,0,0,45,4,1,0.5166987,60.00456035
2,411,9,2,1,8.5,0,-8.5,0,0,45,2,1,0.3668078,60.00456035
2,412,70,2,1,-8.5,0,8.5,0,0,0,1,1,0.3667069,60.00456035
2,413,115,2,2,8.5,0,8.5,0,1,0,2,1,0.5000323,60.00456035
2,414,84,2,2,8.5,0,8.5,0,1,0,4,1,0.4001165,60.00456035
2,415,14000,1,2,8.5,0,-8.5,0,0,45,1,1,0.4834006,60.00456035
2,416,12800,1,2,8.5,0,8.5,0,1,45,3,1,0.3833757,60.00456035
2,417,37,2,2,-8.5,0,-8.5,0,1,45,1,1,0.4333783,60.00456035
2,418,153,2,2,8.5,0,-8.5,0,0,0,2,1,0.4000409,60.00456035
2,419,125,2,2,-8.5,0,-8.5,0,1,0,2,1,0.3684687,60.00456035
2,420,13000,1,2,-8.5,0,-8.5,0,1,45,4,1,0.4001336,60.00456035
2,421,126,2,2,8.5,0,8.5,0,1,0,2,0,0.3167527,60.00456035
2,422,2,2,2,-8.5,0,8.5,0,0,45,4,1,0.3500362,60.00456035
2,423,110,2,1,-8.5,0,-8.5,0,1,45,2,0,0.3834523,60.00456035
2,424,13000,1,2,-8.5,0,8.5,0,0,45,2,1,0.4667141,60.00456035
2,425,93,2,1,-8.5,0,-8.5,0,1,45,4,1,0.4166493,60.00456035
2,426,93,2,1,-8.5,0,8.5,0,0,0,1,1,0.416738,60.00456035
2,427,12800,1,2,8.5,0,-8.5,0,0,45,4,1,0.5166393,60.00456035
2,428,138,2,1,-8.5,0,8.5,0,0,0,1,1,0.3666284,60.00456035
2,429,72,2,2,8.5,0,8.5,0,1,45,2,0,0.450091,60.00456035
2,430,10500,1,1,-8.5,0,-8.5,0,1,45,3,1,0.6166628,60.00456035
2,431,2,2,2,-8.5,0,-8.5,0,1,0,3,1,0.5166804,60.00456035
2,432,26,2,2,8.5,0,-8.5,0,0,0,3,1,0.4167072,60.00456035
2,433,81,2,1,-8.5,0,8.5,0,0,45,4,1,0.3684537,60.00456035
2,434,3300,1,1,-8.5,0,8.5,0,0,0,2,1,0.4167219,60.00456035
2,435,2100,1,2,-8.5,0,8.5,0,0,45,3,1,0.5168041,60.00456035
2,436,10500,1,2,8.5,0,-8.5,0,0,45,4,1,0.5334405,60.00456035
2,437,10300,1,2,-8.5,0,8.5,0,0,0,4,1,0.4001384,60.00456035
2,438,42,2,1,-8.5,0,8.5,0,0,45,4,1,0.5333639,60.00456035
2,439,73,2,2,8.5,0,8.5,0,1,0,1,1,0.466715,60.00456035
2,440,33,2,2,-8.5,0,8.5,0,0,0,4,1,0.4667371,60.00456035
2,441,69,2,2,8.5,0,-8.5,0,0,45,3,1,0.384358,60.00456035
2,442,40,2,2,8.5,0,-8.5,0,0,0,1,1,0.4334048,60.00456035
2,443,12500,1,2,8.5,0,8.5,0,1,0,2,1,0.5166995,60.00456035
2,444,12500,1,1,-8.5,0,8.5,0,0,0,1,1,0.5167004,60.00456035
2,445,157,2,1,-8.5,0,-8.5,0,1,45,3,1,0.3667164,60.00456035
2,446,40,2,1,-8.5,0,-8.5,0,1,0,2,1,0.5333585,60.00456035
2,447,17300,1,1,-8.5,0,8.5,0,0,0,2,0,0.333471,60.00456035
2,448,73,2,1,-8.5,0,-8.5,0,1,45,4,1,0.4501191,60.00456035
2,449,31,2,2,8.5,0,8.5,0,1,45,1,1,0.4197909,60.00456035
2,450,3,2,1,-8.5,0,8.5,0,0,0,4,1,0.3834297,60.00456035
2,451,98,2,2,-8.5,0,8.5,0,0,0,1,1,0.3834184,60.00456035
2,452,30,2,2,-8.5,0,8.5,0,0,45,3,1,0.5833765,60.00456035
2,453,30,2,1,8.5,0,-8.5,0,0,0,2,1,0.383412,60.00456035
2,454,115,2,2,8.5,0,-8.5,0,0,45,3,1,0.4500215,60.00456035
2,455,75,2,1,8.5,0,-8.5,0,0,45,1,1,0.5000589,60.00456035
2,456,41,2,2,-8.5,0,-8.5,0,1,0,2,1,0.483369,60.00456035
2,457,1800,1,2,8.5,0,-8.5,0,0,0,4,1,0.3166994,60.00456035
2,458,162,2,2,8.5,0,-8.5,0,0,45,4,1,0.6333527,60.00456035
2,459,10500,1,1,-8.5,0,8.5,0,0,0,2,1,0.4667667,60.00456035
2,460,117,2,1,-8.5,0,-8.5,0,1,0,3,1,0.4667561,60.00456035
2,461,41,2,1,8.5,0,-8.5,0,0,45,4,1,0.4009761,60.00456035
2,462,23,2,1,8.5,0,8.5,0,1,0,2,1,0.4166461,60.00456035
2,463,70,2,2,8.5,0,-8.5,0,0,0,1,0,0.3503521,60.00456035
2,464,10100,1,2,8.5,0,8.5,0,1,45,2,1,0.3499926,60.00456035
2,465,3300,1,1,-8.5,0,-8.5,0,1,0,1,1,0.3834656,60.00456035
2,466,37,2,1,8.5,0,-8.5,0,0,0,3,1,0.366775,60.00456035
2,467,7,2,1,-8.5,0,-8.5,0,1,45,4,1,0.5333856,60.00456035
2,468,143,2,1,-8.5,0,-8.5,0,1,45,4,1,0.4167842,60.00456035
2,469,162,2,2,8.5,0,8.5,0,1,45,4,1,0.3500237,60.00456035
2,470,106,2,1,-8.5,0,8.5,0,0,45,2,1,0.5000474,60.00456035
2,471,153,2,2,8.5,0,8.5,0,1,0,1,1,0.5001285,60.00456035
2,472,141,2,1,8.5,0,-8.5,0,0,45,2,1,0.4000409,60.00456035
2,473,66,2,1,-8.5,0,8.5,0,0,0,1,1,0.46676,60.00456035
2,474,56,2,1,8.5,0,-8.5,0,0,0,3,1,0.4000129,60.00456035
2,475,17,2,2,8.5,0,-8.5,0,0,0,1,1,0.3501241,60.00456035
2,476,18,2,2,-8.5,0,-8.5,0,1,0,3,1,0.5000202,60.00456035
2,477,158,2,1,8.5,0,-8.5,0,0,45,2,1,0.3667989,60.00456035
2,478,116,2,2,-8.5,0,-8.5,0,1,0,3,1,0.3668176,60.00456035
2,479,40,2,1,-8.5,0,8.5,0,0,0,3,1,0.4833701,60.00456035
2,480,9200,1,1,-8.5,0,8.5,0,0,45,3,1,0.3666276,60.00456035
2,481,14100,1,2,8.5,0,-8.5,0,0,45,4,1,0.4166985,60.00456035
2,482,101,2,1,-8.5,0,-8.5,0,1,45,3,1,0.3667636,60.00456035
2,483,25,2,1,-8.5,0,-8.5,0,1,45,1,1,0.3167787,60.00456035
2,484,113,2,2,8.5,0,-8.5,0,0,0,1,1,0.3500187,60.00456035
2,485,17200,1,2,8.5,0,-8.5,0,0,45,3,0,0.2999787,60.00456035
2,486,161,2,1,-8.5,0,8.5,0,0,45,1,1,0.7999978,60.00456035
2,487,13000,1,1,8.5,0,8.5,0,1,0,3,1,0.5167612,60.00456035
2,488,58,2,2,8.5,0,8.5,0,1,45,3,1,0.6667523,60.00456035
2,489,8,2,2,8.5,0,-8.5,0,0,45,3,1,0.4011065,60.00456035
2,490,142,2,1,-8.5,0,-8.5,0,1,0,1,1,0.7363022,60.00456035
2,491,17,2,2,8.5,0,8.5,0,1,0,1,1,0.500031,60.00456035
2,492,48,2,1,-8.5,0,-8.5,0,1,45,4,1,0.3834364,60.00456035
2,493,4,2,2,8.5,0,-8.5,0,0,45,4,1,0.4500285,60.00456035
2,494,71,2,1,8.5,0,-8.5,0,0,0,1,1,0.5334359,60.00456035
2,495,1200,1,1,-8.5,0,8.5,0,0,45,4,1,0.4333658,60.00456035
2,496,152,2,1,8.5,0,-8.5,0,0,45,2,1,0.4332933,60.00456035
2,497,108,2,1,8.5,0,-8.5,0,0,0,4,1,0.3834399,60.00456035
2,498,62,2,2,8.5,0,8.5,0,1,45,1,1,0.3667731,60.00456035
2,499,400,1,1,8.5,0,-8.5,0,0,0,1,1,0.4679341,60.00456035
2,500,124,2,1,-8.5,0,-8.5,0,1,45,3,1,0.4842386,60.00456035
2,501,116,2,2,-8.5,0,8.5,0,0,0,2,1,0.3840146,60.00456035
2,502,13,2,2,-8.5,0,-8.5,0,1,45,4,1,0.4336264,60.00456035
2,503,72,2,2,8.5,0,-8.5,0,0,45,2,1,0.3834444,60.00456035
2,504,68,2,2,-8.5,0,8.5,0,0,0,3,1,0.3833476,60.00456035
2,505,38,2,1,-8.5,0,-8.5,0,1,0,3,1,0.3666813,60.00456035
2,506,101,2,2,8.5,0,8.5,0,1,45,4,1,0.4500439,60.00456035
2,507,33,2,1,8.5,0,-8.5,0,0,0,4,1,0.3666847,60.00456035
2,508,1200,1,2,8.5,0,8.5,0,1,45,3,1,0.3834417,60.00456035
2,509,2600,1,1,-8.5,0,8.5,0,0,0,2,0,0.3512422,60.00456035
2,510,35,2,2,8.5,0,-8.5,0,0,45,1,1,0.533416,60.00456035
2,511,120,2,1,-8.5,0,8.5,0,0,45,2,1,0.5000517,60.00456035
2,512,33,2,2,-8.5,0,-8.5,0,1,0,1,1,0.4166629,60.00456035
2,513,12800,1,1,-8.5,0,8.5,0,0,45,3,1,0.4001151,60.00456035
2,514,71,2,1,8.5,0,8.5,0,1,45,1,1,0.4167913,60.00456035
2,515,10,2,1,-8.5,0,-8.5,0,1,0,1,1,0.4167818,60.00456035
2,516,23,2,2,-8.5,0,-8.5,0,1,45,3,1,0.433333,60.00456035
2,517,10,2,2,8.5,0,-8.5,0,0,0,2,1,0.4167915,60.00456035
2,518,45,2,2,-8.5,0,8.5,0,0,0,1,0,0.3668049,60.00456035
2,519,36,2,2,8.5,0,8.5,0,1,0,2,1,0.5167755,60.00456035
2,520,13100,1,1,-8.5,0,-8.5,0,1,45,2,1,0.5834095,60.00456035
2,521,109,2,1,-8.5,0,-8.5,0,1,45,3,1,0.4667488,60.00456035
2,522,4100,1,2,-8.5,0,8.5,0,0,45,3,1,0.3667843,60.00456035
2,523,400,1,2,-8.5,0,-8.5,0,1,45,3,1,0.3667798,60.00456035
2,524,6300,1,2,8.5,0,-8.5,0,0,45,4,1,0.4668029,60.00456035
2,525,152,2,1,8.5,0,8.5,0,1,0,2,1,0.3667147,60.00456035
2,526,106,2,1,-8.5,0,-8.5,0,1,45,3,1,0.3834035,60.00456035
2,527,111,2,2,-8.5,0,8.5,0,0,45,4,1,0.3666506,60.00456035
2,528,129,2,1,8.5,0,-8.5,0,0,0,3,1,0.3500461,60.00456035
2,529,153,2,1,-8.5,0,-8.5,0,1,0,2,1,0.3334096,60.00456035
2,530,101,2,2,8.5,0,-8.5,0,0,45,2,0,0.3334361,60.00456035
2,531,120,2,1,-8.5,0,-8.5,0,1,45,4,1,0.5668148,60.00456035
2,532,86,2,2,8.5,0,-8.5,0,0,0,2,1,0.5000459,60.00456035
2,533,52,2,2,8.5,0,-8.5,0,0,0,2,1,0.3834105,60.00456035
2,534,13200,1,1,-8.5,0,8.5,0,0,45,1,1,0.3517536,60.00456035
2,535,71,2,2,-8.5,0,-8.5,0,1,45,1,1,0.6500256,60.00456035
2,536,107,2,2,8.5,0,-8.5,0,0,45,4,1,0.4166409,60.00456035
2,537,65,2,2,8.5,0,-8.5,0,0,0,3,1,0.4333789,60.00456035
2,538,122,2,1,-8.5,0,8.5,0,0,45,2,1,0.3666873,60.00456035
2,539,9,2,2,-8.5,0,8.5,0,0,45,3,1,0.3000611,60.00456035
2,540,17200,1,2,8.5,0,8.5,0,1,0,2,1,0.5167004,60.00456035
2,541,162,2,1,-8.5,0,-8.5,0,1,45,3,1,0.4833396,60.00456035
2,542,111,2,2,-8.5,0,-8.5,0,1,45,3,1,0.3833632,60.00456035
2,543,129,2,2,-8.5,0,-8.5,0,1,45,4,1,0.3501502,60.00456035
2,544,117,2,2,8.5,0,-8.5,0,0,0,3,1,0.416709,60.00456035
2,545,10400,1,1,-8.5,0,8.5,0,0,0,1,1,0.4832804,60.00456035
2,546,26,2,1,-8.5,0,-8.5,0,1,45,3,1,0.6334485,60.00456035
2,547,57,2,1,-8.5,0,8.5,0,0,45,4,1,0.5348949,60.00456035
2,548,2100,1,1,8.5,0,-8.5,0,0,0,1,1,0.3515519,60.00456035
2,549,1800,1,1,-8.5,0,-8.5,0,1,0,2,1,0.4678901,60.00456035
2,550,141,2,2,-8.5,0,8.5,0,0,45,2,1,0.3500391,60.00456035
2,551,8,2,2,8.5,0,8.5,0,1,45,3,1,0.4506078,60.00456035
2,552,43,2,2,8.5,0,8.5,0,1,45,3,1,0.383306,60.00456035
2,553,115,2,1,-8.5,0,8.5,0,0,0,1,1,0.550024,60.00456035
2,554,76,2,2,8.5,0,8.5,0,1,0,1,1,0.4499525,60.00456035
2,555,10100,1,1,-8.5,0,-8.5,0,1,45,1,1,0.6501451,60.00456035
2,556,28,2,2,8.5,0,8.5,0,1,0,4,1,0.4500225,60.00456035
2,557,2600,1,1,-8.5,0,-8.5,0,1,45,1,1,0.4333893,60.00456035
2,558,84,2,1,-8.5,0,8.5,0,0,45,4,0,0.4333601,60.00456035
2,559,18,2,1,8.5,0,8.5,0,1,45,3,1,0.5000204,60.00456035
2,560,17,2,1,-8.5,0,8.5,0,0,0,4,1,0.4500616,60.00456035
2,561,72,2,1,-8.5,0,8.5,0,0,45,2,1,0.3833467,60.00456035
2,562,32,2,2,8.5,0,-8.5,0,0,0,2,1,0.4334024,60.00456035
2,563,11700,1,2,8.5,0,-8.5,0,0,45,2,1,0.6334005,60.00456035
2,564,23,2,2,-8.5,0,8.5,0,0,45,2,1,0.3166744,60.00456035
2,565,22,2,2,8.5,0,-8.5,0,0,0,1,1,0.3501361,60.00456035
2,566,75,2,1,8.5,0,8.5,0,1,0,1,1,0.3834155,60.00456035
2,567,63,2,2,-8.5,0,-8.5,0,1,45,4,1,0.4501303,60.00456035
3,0,70,2,1,-8.5,0,-8.5,0,1,0,1,1,0.6334332,59.999664
3,1,10,2,2,-8.5,0,-8.5,0,1,0,2,1,0.483403,59.999664
3,2,7,2,1,-8.5,0,8.5,0,0,0,3,1,0.40002,59.999664
3,3,11700,1,1,-8.5,0,-8.5,0,1,0,4,1,0.4834852,59.999664
3,4,28,2,1,8.5,0,8.5,0,1,0,2,1,0.3334149,59.999664
3,5,84,2,1,8.5,0,8.5,0,1,45,4,0,0.3500486,59.999664
3,6,84,2,2,-8.5,0,-8.5,0,1,45,4,1,0.4499803,59.999664
3,7,17300,1,1,8.5,0,-8.5,0,0,0,4,1,0.5667722,59.999664
3,8,30,2,2,-8.5,0,8.5,0,0,45,1,1,0.5167354,59.999664
3,9,6900,1,2,-8.5,0,8.5,0,0,0,1,1,0.5500511,59.999664
3,10,11,2,2,8.5,0,8.5,0,1,0,2,1,0.3666467,59.999664
3,11,1,2,1,8.5,0,8.5,0,1,45,2,0,0.4333239,59.999664
3,12,9200,1,1,-8.5,0,-8.5,0,1,45,2,1,0.5499997,59.999664
3,13,56,2,2,-8.5,0,-8.5,0,1,0,2,1,0.4834213,59.999664
3,14,131,2,1,8.5,0,-8.5,0,0,45,2,1,0.4500273,59.999664
3,15,43,2,2,8.5,0,-8.5,0,0,0,2,1,0.5508178,59.999664
3,16,6900,1,2,-8.5,0,-8.5,0,1,45,4,1,0.450069,59.999664
3,17,98,2,2,-8.5,0,-8.5,0,1,45,4,1,0.3833554,59.999664
3,18,2100,1,2,-8.5,0,8.5,0,0,0,1,1,0.3344547,59.999664
3,19,400,1,1,8.5,0,8.5,0,1,0,3,1,0.3999612,59.999664
3,20,115,2,2,8.5,0,-8.5,0,0,45,1,1,0.4000068,59.999664
3,21,61,2,2,-8.5,0,8.5,0,0,0,1,1,0.3666964,59.999664
3,22,9200,1,2,8.5,0,8.5,0,1,0,2,1,0.3506665,59.999664
3,23,5,2,2,-8.5,0,-8.5,0,1,45,4,1,0.3334426,59.999664
3,24,115,2,2,8.5,0,8.5,0,1,0,2,1,0.3500304,59.999664
3,25,6800,1,1,8.5,0,8.5,0,1,0,3,0,0.4667867,59.999664
3,26,10800,1,1,8.5,0,-8.5,0,0,45,4,1,0.4500173,59.999664
3,27,110,2,2,-8.5,0,8.5,0,0,45,1,1,0.5334543,59.999664
3,28,13800,1,1,8.5,0,8.5,0,1,45,1,1,0.5682507,59.999664
3,29,143,2,2,8.5,0,8.5,0,1,0,1,1,0.4666103,59.999664
3,30,111,2,2,8.5,0,8.5,0,1,0,4,1,0.6500628,59.999664
3,31,12800,1,2,-8.5,0,-8.5,0,1,45,1,1,0.4501358,59.999664
3,32,113,2,2,-8.5,0,8.5,0,0,45,3,1,0.5833708,59.999664
3,33,11700,1,2,8.5,0,-8.5,0,0,0,2,1,0.4333237,59.999664
3,34,31,2,2,8.5,0,-8.5,0,0,45,2,1,0.4334228,59.999664
3,35,77,2,2,8.5,0,8.5,0,1,45,3,1,0.500017,59.999664
3,36,3100,1,1,-8.5,0,-8.5,0,1,45,3,1,0.3834669,59.999664
3,37,96,2,1,-8.5,0,8.5,0,0,45,1,1,0.4000506,59.999664
3,38,40,2,2,-8.5,0,-8.5,0,1,45,1,1,0.3334223,59.999664
3,39,8,2,1,8.5,0,8.5,0,1,45,4,1,0.416735,59.999664
3,40,13800,1,2,-8.5,0,8.5,0,0,0,4,1,0.3666885,59.999664
3,41,14100,1,2,-8.5,0,-8.5,0,1,45,1,1,0.4000555,59.999664
3,42,58,2,1,8.5,0,8.5,0,1,45,3,1,0.4334195,59.999664
3,43,124,2,1,-8.5,0,-8.5,0,1,45,3,1,0.3020173,59.999664
3,44,87,2,2,-8.5,0,-8.5,0,1,45,3,1,0.3167427,59.999664
3,45,162,2,1,8.5,0,8.5,0,1,45,4,1,0.4000601,59.999664
3,46,4,2,1,-8.5,0,-8.5,0,1,45,4,1,0.4001239,59.999664
3,47,152,2,2,8.5,0,8.5,0,1,45,1,1,0.4346521,59.999664
3,48,45,2,1,8.5,0,8.5,0,1,0,2,1,0.4333748,59.999664
3,49,86,2,1,-8.5,0,-8.5,0,1,0,2,1,0.4334232,59.999664
3,50,87,2,1,8.5,0,8.5,0,1,0,3,1,0.3334185,59.999664
3,51,125,2,2,-8.5,0,-8.5,0,1,0,3,1,0.4667234,59.999664
3,52,400,1,2,-8.5,0,8.5,0,0,0,1,1,0.7500466,59.999664
3,53,1200,1,2,8.5,0,8.5,0,1,0,4,1,0.3500589,59.999664
3,54,3,2,1,8.5,0,-8.5,0,0,45,1,1,0.4000228,59.999664
3,55,1200,1,1,-8.5,0,-8.5,0,1,0,1,1,0.4849915,59.999664
3,56,17300,1,2,-8.5,0,-8.5,0,1,0,1,1,0.4000303,59.999664
3,57,14000,1,1,-8.5,0,8.5,0,0,45,4,1,0.5332899,59.999664
3,58,29,2,1,-8.5,0,-8.5,0,1,45,3,1,0.4500704,59.999664
3,59,4,2,2,8.5,0,-8.5,0,0,0,4,1,0.5183172,59.999664
3,60,2600,1,1,8.5,0,-8.5,0,0,45,4,1,0.6001183,59.999664
3,61,25,2,1,-8.5,0,8.5,0,0,0,1,1,0.5668005,59.999664
3,62,94,2,1,-8.5,0,8.5,0,0,45,4,1,0.5000009,59.999664
3,63,13200,1,1,8.5,0,8.5,0,1,45,4,1,0.4500425,59.999664
3,64,4,2,1,-8.5,0,8.5,0,0,45,4,1,0.4500447,59.999664
3,65,152,2,1,-8.5,0,8.5,0,0,0,1,1,0.4332773,59.999664
3,66,142,2,2,-8.5,0,-8.5,0,1,45,3,1,0.3834655,59.999664
3,67,101,2,1,8.5,0,-8.5,0,0,0,1,1,0.483295,59.999664
3,68,115,2,1,-8.5,0,8.5,0,0,45,1,1,0.5500566,59.999664
3,69,161,2,2,8.5,0,8.5,0,1,45,1,1,0.5833518,59.999664
3,70,116,2,2,-8.5,0,-8.5,0,1,45,3,1,0.5000168,59.999664
3,71,153,2,1,8.5,0,-8.5,0,0,45,2,1,0.4004528,59.999664
3,72,2200,1,2,8.5,0,8.5,0,1,45,1,1,0.416728,59.999664
3,73,3300,1,2,-8.5,0,8.5,0,0,45,2,1,0.3851431,59.999664
3,74,107,2,1,-8.5,0,8.5,0,0,45,2,1,0.4000699,59.999664
3,75,109,2,1,-8.5,0,8.5,0,0,0,3,1,0.4334177,59.999664
3,76,116,2,2,-8.5,0,8.5,0,0,0,1,1,0.4833318,59.999664
3,77,3100,1,1,-8.5,0,8.5,0,0,45,3,1,0.469092,59.999664
3,78,60,2,1,-8.5,0,8.5,0,0,0,1,1,0.4167569,59.999664
3,79,1800,1,2,-8.5,0,8.5,0,0,45,3,1,0.416695,59.999664
3,80,109,2,2,8.5,0,-8.5,0,0,0,1,0,0.3001313,59.999664
3,81,116,2,1,8.5,0,8.5,0,1,0,2,1,0.3668073,59.999664
3,82,60,2,2,8.5,0,8.5,0,1,45,3,1,0.4666538,59.999664
3,83,17200,1,1,-8.5,0,8.5,0,0,0,3,1,0.3834122,59.999664
3,84,47,2,1,-8.5,0,-8.5,0,1,0,2,1,0.483458,59.999664
3,85,69,2,2,-8.5,0,-8.5,0,1,0,1,1,0.4001105,59.999664
3,86,12500,1,2,8.5,0,8.5,0,1,0,1,1,0.3000451,59.999664
3,87,57,2,1,-8.5,0,8.5,0,0,45,3,1,0.5507061,59.999664
3,88,32,2,1,8.5,0,8.5,0,1,45,1,1,0.5000333,59.999664
3,89,113,2,1,8.5,0,-8.5,0,0,0,3,1,0.4187218,59.999664
3,90,161,2,2,8.5,0,-8.5,0,0,45,3,1,0.3833142,59.999664
3,91,94,2,1,-8.5,0,-8.5,0,1,0,4,1,0.4334275,59.999664
3,92,49,2,2,8.5,0,-8.5,0,0,0,1,1,0.5500971,59.999664
3,93,47,2,1,-8.5,0,8.5,0,0,0,2,1,0.3333885,59.999664
3,94,16,2,1,-8.5,0,8.5,0,0,0,4,1,0.3168014,59.999664
3,95,63,2,2,-8.5,0,8.5,0,0,0,2,1,0.3667913,59.999664
3,96,68,2,1,-8.5,0,-8.5,0,1,45,4,1,0.3834346,59.999664
3,97,108,2,2,-8.5,0,-8.5,0,1,0,1,0,0.3167288,59.999664
3,98,117,2,1,-8.5,0,8.5,0,0,0,2,1,0.3180472,59.999664
3,99,13000,1,2,-8.5,0,-8.5,0,1,45,4,1,0.4500369,59.999664
3,100,62,2,1,-8.5,0,8.5,0,0,0,1,1,0.3167749,59.999664
3,101,84,2,1,8.5,0,-8.5,0,0,45,3,1,0.4500748,59.999664
3,102,76,2,2,-8.5,0,8.5,0,0,0,1,1,0.3334026,59.999664
3,103,143,2,2,8.5,0,-8.5,0,0,45,4,1,0.3667828,59.999664
3,104,2600,1,2,-8.5,0,8.5,0,0,0,4,1,0.3335454,59.999664
3,105,136,2,1,-8.5,0,-8.5,0,1,0,1,1,0.5500239,59.999664
3,106,153,2,2,-8.5,0,8.5,0,0,0,1,1,0.3833866,59.999664
3,107,9200,1,2,8.5,0,-8.5,0,0,0,1,0,0.3500542,59.999664
3,108,66,2,2,-8.5,0,8.5,0,0,0,2,1,0.3333555,59.999664
3,109,49,2,2,8.5,0,8.5,0,1,45,1,1,0.4850344,59.999664
3,110,126,2,2,8.5,0,8.5,0,1,0,2,1,0.3666802,59.999664
3,111,10800,1,1,8.5,0,8.5,0,1,45,4,1,0.4167032,59.999664
3,112,12300,1,1,8.5,0,-8.5,0,0,45,1,1,0.4333598,59.999664
3,113,146,2,2,8.5,0,8.5,0,1,45,1,1,0.4667512,59.999664
3,114,3,2,2,-8.5,0,8.5,0,0,0,3,1,0.3500362,59.999664
3,115,157,2,2,8.5,0,-8.5,0,0,45,3,1,0.3332996,59.999664
3,116,5,2,2,-8.5,0,8.5,0,0,0,3,1,0.3166926,59.999664
3,117,2,2,2,8.5,0,8.5,0,1,0,3,1,0.3667597,59.999664
3,118,2900,1,2,-8.5,0,8.5,0,0,0,2,1,0.3500375,59.999664
3,119,10500,1,1,8.5,0,-8.5,0,0,0,2,1,0.4667487,59.999664
3,120,17300,1,1,8.5,0,8.5,0,1,0,1,1,0.36667,59.999664
3,121,122,2,2,-8.5,0,-8.5,0,1,45,3,1,0.3333998,59.999664
3,122,70,2,2,8.5,0,-8.5,0,0,0,2,1,0.5000447,59.999664
3,123,95,2,2,-8.5,0,8.5,0,0,0,2,1,0.366718,59.999664
3,124,66,2,2,-8.5,0,-8.5,0,1,45,3,1,0.4167732,59.999664
3,125,105,2,1,-8.5,0,8.5,0,0,0,1,1,0.4167825,59.999664
3,126,31,2,1,-8.5,0,-8.5,0,1,45,1,1,0.4167809,59.999664
3,127,124,2,1,-8.5,0,8.5,0,0,0,4,1,0.2667025,59.999664
3,128,66,2,1,8.5,0,-8.5,0,0,45,4,0,0.3026811,59.999664
3,129,98,2,2,-8.5,0,8.5,0,0,0,1,1,0.3500402,59.999664
3,130,144,2,1,8.5,0,-8.5,0,0,45,4,1,0.3834145,59.999664
3,131,1800,1,1,8.5,0,-8.5,0,0,0,2,1,0.3333753,59.999664
3,132,62,2,2,8.5,0,8.5,0,1,0,3,1,0.3666451,59.999664
3,133,115,2,1,-8.5,0,-8.5,0,1,45,2,1,0.2839643,59.999664
3,134,93,2,1,8.5,0,8.5,0,1,45,3,0,0.3000313,59.999664
3,135,96,2,2,8.5,0,-8.5,0,0,45,1,1,0.466617,59.999664
3,136,2,2,1,-8.5,0,8.5,0,0,45,4,1,0.4509051,59.999664
3,137,36,2,1,-8.5,0,8.5,0,0,0,2,1,0.3667821,59.999664
3,138,17200,1,2,8.5,0,-8.5,0,0,45,3,1,0.4167772,59.999664
3,139,43,2,1,-8.5,0,-8.5,0,1,45,4,1,0.5166626,59.999664
3,140,6300,1,2,8.5,0,-8.5,0,0,0,3,1,0.4010283,59.999664
3,141,121,2,1,-8.5,0,-8.5,0,1,0,1,1,0.4833394,59.999664
3,142,105,2,2,8.5,0,-8.5,0,0,0,3,1,0.4000105,59.999664
3,143,12300,1,2,-8.5,0,8.5,0,0,45,4,0,0.3500553,59.999664
3,144,7,2,1,-8.5,0,-8.5,0,1,0,1,1,0.41666,59.999664
3,145,153,2,2,-8.5,0,-8.5,0,1,45,4,1,0.4501279,59.999664
3,146,146,2,2,8.5,0,-8.5,0,0,0,1,1,0.3333504,59.999664
3,147,26,2,1,8.5,0,-8.5,0,0,0,1,1,0.4167877,59.999664
3,148,47,2,2,8.5,0,8.5,0,1,45,4,1,0.4333606,59.999664
3,149,71,2,2,-8.5,0,-8.5,0,1,0,3,1,0.3167574,59.999664
3,150,10,2,1,8.5,0,8.5,0,1,0,2,1,0.250036,59.999664
3,151,129,2,1,-8.5,0,8.5,0,0,45,3,1,0.5001153,59.999664
3,152,41,2,1,-8.5,0,8.5,0,0,0,1,1,0.3334178,59.999664
3,153,2,2,1,-8.5,0,-8.5,0,1,0,3,1,0.3667968,59.999664
3,154,45,2,2,-8.5,0,-8.5,0,1,0,1,1,0.4168107,59.999664
3,155,81,2,1,8.5,0,-8.5,0,0,0,2,1,0.4334228,59.999664
3,156,17200,1,1,-8.5,0,-8.5,0,1,45,4,1,0.3167253,59.999664
3,157,134,2,1,8.5,0,-8.5,0,0,45,3,1,0.4667465,59.999664
3,158,69,2,1,8.5,0,-8.5,0,0,0,1,0,0.6501125,59.999664
3,159,8,2,2,-8.5,0,-8.5,0,1,0,1,1,0.4501196,59.999664
3,160,3100,1,2,8.5,0,-8.5,0,0,0,4,1,0.4000906,59.999664
3,161,29,2,2,8.5,0,-8.5,0,0,0,1,1,0.4333646,59.999664
3,162,13200,1,1,8.5,0,-8.5,0,0,0,3,1,0.6000348,59.999664
3,163,86,2,1,-8.5,0,8.5,0,0,45,4,1,0.4834218,59.999664
3,164,136,2,2,8.5,0,-8.5,0,0,0,3,1,0.4334101,59.999664
3,165,14000,1,2,8.5,0,-8.5,0,0,0,2,1,0.4833642,59.999664
3,166,32,2,1,8.5,0,-8.5,0,0,0,4,1,0.5175325,59.999664
3,167,68,2,1,-8.5,0,8.5,0,0,0,2,1,0.5000546,59.999664
3,168,65,2,2,8.5,0,-8.5,0,0,45,4,1,0.4667689,59.999664
3,169,30,2,2,-8.5,0,-8.5,0,1,0,1,1,0.4333453,59.999664
3,170,68,2,2,8.5,0,8.5,0,1,0,1,1,0.3667213,59.999664
3,171,125,2,1,8.5,0,-8.5,0,0,0,2,1,0.60013,59.999664
3,172,28,2,2,-8.5,0,-8.5,0,1,0,4,1,0.2846962,59.999664
3,173,107,2,2,8.5,0,-8.5,0,0,0,3,1,0.2501252,59.999664
3,174,81,2,2,-8.5,0,-8.5,0,1,45,4,1,0.516667,59.999664
3,175,57,2,1,-8.5,0,-8.5,0,1,45,1,1,0.5167148,59.999664
3,176,91,2,1,-8.5,0,8.5,0,0,45,3,0,0.3501094,59.999664
3,177,157,2,2,8.5,0,8.5,0,1,0,4,1,0.4167589,59.999664
3,178,81,2,1,8.5,0,8.5,0,1,45,4,1,0.4500566,59.999664
3,179,10300,1,1,8.5,0,-8.5,0,0,45,4,1,0.4334606,59.999664
3,180,66,2,1,8.5,0,8.5,0,1,0,4,1,0.3167876,59.999664
3,181,10100,1,2,-8.5,0,8.5,0,0,45,2,1,0.4167812,59.999664
3,182,56,2,1,8.5,0,-8.5,0,0,45,3,1,0.3343367,59.999664
3,183,10100,1,1,8.5,0,-8.5,0,0,0,4,0,0.3168013,59.999664
3,184,65,2,1,-8.5,0,8.5,0,0,0,1,1,0.566767,59.999664
3,185,6800,1,2,-8.5,0,-8.5,0,1,0,2,1,0.4999511,59.999664
3,186,6300,1,2,8.5,0,8.5,0,1,0,4,1,0.3667251,59.999664
3,187,30,2,1,8.5,0,-8.5,0,0,45,2,1,0.4166654,59.999664
3,188,132,2,2,8.5,0,8.5,0,1,45,3,1,0.4333634,59.999664
3,189,400,1,2,-8.5,0,-8.5,0,1,45,3,0,0.3167116,59.999664
3,190,14300,1,2,-8.5,0,-8.5,0,1,45,4,1,0.4681491,59.999664
3,191,117,2,2,8.5,0,8.5,0,1,0,3,1,0.3667459,59.999664
3,192,29,2,1,-8.5,0,8.5,0,0,45,1,1,0.5167101,59.999664
3,193,73,2,1,8.5,0,-8.5,0,0,45,2,1,0.5334409,59.999664
3,194,2200,1,1,-8.5,0,8.5,0,0,45,1,1,0.5001242,59.999664
3,195,17,2,2,-8.5,0,-8.5,0,1,0,3,1,0.5834091,59.999664
3,196,37,2,2,-8.5,0,-8.5,0,1,45,4,1,0.4667901,59.999664
3,197,42,2,1,8.5,0,-8.5,0,0,45,3,1,0.4666903,59.999664
3,198,76,2,1,8.5,0,-8.5,0,0,0,2,1,0.433473,59.999664
3,199,120,2,1,8.5,0,-8.5,0,0,45,1,1,0.4500224,59.999664
3,200,3100,1,2,8.5,0,8.5,0,1,0,4,1,0.4666266,59.999664
3,201,77,2,1,-8.5,0,8.5,0,0,0,1,1,0.4844388,59.999664
3,202,72,2,1,-8.5,0,8.5,0,0,0,2,1,0.4334229,59.999664
3,203,125,2,2,-8.5,0,8.5,0,0,0,1,1,0.3334151,59.999664
3,204,14300,1,1,8.5,0,-8.5,0,0,45,4,1,0.3500314,59.999664
3,205,94,2,2,8.5,0,8.5,0,1,45,4,1,0.6167415,59.999664
3,206,43,2,2,8.5,0,8.5,0,1,45,3,0,0.5000791,59.999664
3,207,31,2,1,-8.5,0,8.5,0,0,45,3,1,0.516622,59.999664
3,208,10800,1,2,-8.5,0,-8.5,0,1,0,1,1,0.4673064,59.999664
3,209,13200,1,2,-8.5,0,8.5,0,0,45,1,1,0.6334264,59.999664
3,210,162,2,2,-8.5,0,8.5,0,0,0,2,1,0.4834589,59.999664
3,211,13100,1,1,-8.5,0,-8.5,0,1,45,3,1,0.4834448,59.999664
3,212,136,2,2,8.5,0,8.5,0,1,45,4,1,0.8833202,59.999664
3,213,58,2,1,8.5,0,-8.5,0,0,0,3,1,0.4000296,59.999664
3,214,23,2,2,-8.5,0,-8.5,0,1,45,2,1,0.4500554,59.999664
3,215,23,2,1,8.5,0,-8.5,0,0,0,1,1,0.4833922,59.999664
3,216,141,2,1,-8.5,0,-8.5,0,1,45,3,1,0.416738,59.999664
3,217,95,2,2,-8.5,0,-8.5,0,1,0,4,1,0.4500386,59.999664
3,218,12100,1,2,-8.5,0,8.5,0,0,0,1,1,0.3667324,59.999664
3,219,22,2,2,8.5,0,-8.5,0,0,0,3,1,0.3834456,59.999664
3,220,6800,1,1,8.5,0,-8.5,0,0,45,4,1,0.3500403,59.999664
3,221,20,2,1,8.5,0,8.5,0,1,45,1,1,0.3833725,59.999664
3,222,96,2,2,8.5,0,8.5,0,1,0,1,0,0.3167495,59.999664
3,223,144,2,2,-8.5,0,-8.5,0,1,45,1,1,0.6000207,59.999664
3,224,126,2,2,8.5,0,-8.5,0,0,0,2,1,0.4023234,59.999664
3,225,1,2,2,-8.5,0,-8.5,0,1,45,2,1,0.4845268,59.999664
3,226,122,2,1,8.5,0,8.5,0,1,45,4,1,0.5000418,59.999664
3,227,55,2,1,-8.5,0,8.5,0,0,0,1,1,0.2667749,59.999664
3,228,49,2,1,-8.5,0,-8.5,0,1,45,1,1,0.3501194,59.999664
3,229,27,2,1,-8.5,0,8.5,0,0,0,2,1,0.3001042,59.999664
3,230,58,2,2,-8.5,0,8.5,0,0,0,2,1,0.3167739,59.999664
3,231,3300,1,1,8.5,0,-8.5,0,0,0,4,0,0.3166521,59.999664
3,232,2600,1,1,8.5,0,8.5,0,1,45,4,0,0.3501304,59.999664
3,233,17300,1,2,-8.5,0,8.5,0,0,45,4,1,0.6334092,59.999664
3,234,79,2,2,-8.5,0,8.5,0,0,45,1,1,0.5166752,59.999664
3,235,142,2,2,-8.5,0,8.5,0,0,45,4,1,0.6833502,59.999664
3,236,56,2,1,8.5,0,8.5,0,1,45,3,1,0.4167649,59.999664
3,237,2200,1,1,-8.5,0,-8.5,0,1,45,2,1,0.3000549,59.999664
3,238,129,2,2,8.5,0,8.5,0,1,0,2,1,0.3512914,59.999664
3,239,4100,1,2,-8.5,0,-8.5,0,1,0,1,1,0.5000343,59.999664
3,240,47,2,2,8.5,0,-8.5,0,0,0,2,1,0.5667845,59.999664
3,241,134,2,2,-8.5,0,-8.5,0,1,45,2,1,0.4000216,59.999664
3,242,111,2,2,8.5,0,-8.5,0,0,0,2,1,0.6170718,59.999664
3,243,2900,1,1,8.5,0,8.5,0,1,0,2,1,0.3333977,59.999664
3,244,131,2,1,8.5,0,8.5,0,1,45,1,0,0.266689,59.999664
3,245,17200,1,2,8.5,0,8.5,0,1,0,2,1,0.4167133,59.999664
3,246,69,2,2,-8.5,0,8.5,0,0,45,2,1,0.5666911,59.999664
3,247,100,2,2,8.5,0,8.5,0,1,0,2,1,0.3666553,59.999664
3,248,70,2,2,8.5,0,8.5,0,1,45,3,1,0.4001321,59.999664
3,249,12500,1,1,-8.5,0,-8.5,0,1,0,4,1,0.6666567,59.999664
3,250,79,2,2,-8.5,0,-8.5,0,1,45,2,1,0.4333861,59.999664
3,251,70,2,1,-8.5,0,8.5,0,0,0,3,1,0.3667168,59.999664
3,252,31,2,2,8.5,0,8.5,0,1,0,2,1,0.416784,59.999664
3,253,9200,1,1,-8.5,0,8.5,0,0,45,4,1,0.5188488,59.999664
3,254,83,2,2,8.5,0,8.5,0,1,0,4,1,0.3834658,59.999664
3,255,28,2,1,8.5,0,-8.5,0,0,0,4,0,0.316799,59.999664
3,256,18,2,1,-8.5,0,8.5,0,0,0,2,1,0.5667853,59.999664
3,257,4,2,2,8.5,0,8.5,0,1,0,1,1,0.4833532,59.999664
3,258,65,2,1,-8.5,0,-8.5,0,1,0,3,1,0.500139,59.999664
3,259,14000,1,1,-8.5,0,-8.5,0,1,0,4,1,0.5167284,59.999664
3,260,13100,1,2,8.5,0,8.5,0,1,45,4,1,0.4501217,59.999664
3,261,83,2,2,8.5,0,-8.5,0,0,0,2,1,0.5167818,59.999664
3,262,146,2,1,-8.5,0,-8.5,0,1,45,3,1,0.3500374,59.999664
3,263,22,2,1,-8.5,0,8.5,0,0,0,2,1,0.4001142,59.999664
3,264,48,2,2,-8.5,0,8.5,0,0,45,4,1,0.5500443,59.999664
3,265,75,2,1,-8.5,0,8.5,0,0,0,4,1,0.38343,59.999664
3,266,12300,1,1,8.5,0,8.5,0,1,0,3,1,0.4501235,59.999664
3,267,100,2,1,-8.5,0,-8.5,0,1,45,4,1,0.31671,59.999664
3,268,57,2,2,8.5,0,8.5,0,1,0,1,1,0.4332923,59.999664
3,269,152,2,1,-8.5,0,-8.5,0,1,0,4,0,0.4667819,59.999664
3,270,83,2,1,-8.5,0,8.5,0,0,0,3,1,0.5167866,59.999664
3,271,29,2,2,8.5,0,8.5,0,1,0,4,1,0.4002204,59.999664
3,272,32,2,2,-8.5,0,-8.5,0,1,45,4,1,0.4001307,59.999664
3,273,30,2,1,8.5,0,8.5,0,1,45,1,1,0.666691,59.999664
3,274,108,2,1,8.5,0,8.5,0,1,0,2,1,0.8333967,59.999664
3,275,125,2,1,8.5,0,8.5,0,1,45,3,1,0.4333623,59.999664
3,276,71,2,2,-8.5,0,8.5,0,0,0,3,1,0.466641,59.999664
3,277,45,2,1,8.5,0,-8.5,0,0,0,3,1,0.8001248,59.999664
3,278,41,2,2,8.5,0,8.5,0,1,45,3,1,0.4667898,59.999664
3,279,107,2,1,-8.5,0,-8.5,0,1,45,3,1,0.5000058,59.999664
3,280,2600,1,2,-8.5,0,-8.5,0,1,0,4,1,0.4501339,59.999664
3,281,132,2,1,-8.5,0,8.5,0,0,0,2,1,0.4999635,59.999664
3,282,20,2,1,8.5,0,-8.5,0,0,0,4,0,0.2668149,59.999664
3,283,52,2,2,-8.5,0,-8.5,0,1,0,1,0,0.6333705,59.999664
3,284,10,2,1,8.5,0,-8.5,0,0,45,3,1,0.5000086,59.999664
3,285,4100,1,1,8.5,0,8.5,0,1,0,3,1,0.3501227,59.999664
3,286,11,2,2,8.5,0,-8.5,0,0,45,3,1,0.4500016,59.999664
3,287,13,2,1,8.5,0,-8.5,0,0,0,2,1,0.6167099,59.999664
3,288,76,2,2,-8.5,0,-8.5,0,1,45,1,1,0.4333558,59.999664
3,289,12800,1,2,-8.5,0,8.5,0,0,45,2,0,0.4333908,59.999664
3,290,113,2,1,8.5,0,8.5,0,1,45,4,1,0.5000263,59.999664
3,291,71,2,1,8.5,0,-8.5,0,0,45,2,1,0.4502861,59.999664
3,292,57,2,2,8.5,0,-8.5,0,0,0,1,1,0.4667019,59.999664
3,293,81,2,2,-8.5,0,8.5,0,0,0,2,1,0.4000233,59.999664
3,294,13000,1,1,8.5,0,8.5,0,1,0,2,1,0.3666631,59.999664
3,295,41,2,1,-8.5,0,-8.5,0,1,45,4,1,0.4194898,59.999664
3,296,10500,1,2,-8.5,0,8.5,0,0,0,4,1,0.4667614,59.999664
3,297,79,2,1,8.5,0,-8.5,0,0,0,3,1,0.7834138,59.999664
3,298,42,2,2,-8.5,0,8.5,0,0,45,2,1,0.5001286,59.999664
3,299,12500,1,1,-8.5,0,8.5,0,0,0,3,1,0.3834043,59.999664
3,300,18,2,2,8.5,0,8.5,0,1,0,4,1,0.3168026,59.999664
3,301,1800,1,2,-8.5,0,-8.5,0,1,45,2,1,0.3501184,59.999664
3,302,120,2,2,-8.5,0,-8.5,0,1,45,4,1,0.2834044,59.999664
3,303,14100,1,1,8.5,0,8.5,0,1,0,3,1,0.2848323,59.999664
3,304,61,2,1,8.5,0,8.5,0,1,0,3,1,0.2838645,59.999664
3,305,35,2,1,8.5,0,8.5,0,1,0,1,1,0.3001377,59.999664
3,306,93,2,2,-8.5,0,8.5,0,0,45,4,0,0.4334589,59.999664
3,307,141,2,2,8.5,0,-8.5,0,0,0,3,1,0.983396,59.999664
3,308,61,2,2,-8.5,0,-8.5,0,1,0,4,1,0.4833743,59.999664
3,309,2900,1,1,8.5,0,-8.5,0,0,0,1,1,0.4501173,59.999664
3,310,116,2,1,8.5,0,-8.5,0,0,45,1,1,0.5333554,59.999664
3,311,33,2,2,8.5,0,-8.5,0,0,45,3,1,0.3500454,59.999664
3,312,132,2,2,8.5,0,-8.5,0,0,0,4,0,0.3334253,59.999664
3,313,86,2,2,8.5,0,8.5,0,1,45,1,1,0.5167905,59.999664
3,314,107,2,2,8.5,0,8.5,0,1,0,3,1,0.4666187,59.999664
3,315,9,2,1,-8.5,0,8.5,0,0,0,4,1,0.4167289,59.999664
3,316,122,2,1,8.5,0,-8.5,0,0,45,3,1,0.3834601,59.999664
3,317,127,2,1,8.5,0,8.5,0,1,45,4,0,0.4167176,59.999664
3,318,4100,1,1,8.5,0,-8.5,0,0,0,1,0,0.7667036,59.999664
3,319,77,2,1,-8.5,0,-8.5,0,1,45,1,1,0.5342935,59.999664
3,320,131,2,2,-8.5,0,8.5,0,0,0,2,1,0.4000415,59.999664
3,321,28,2,2,-8.5,0,8.5,0,0,45,4,1,0.4500382,59.999664
3,322,58,2,2,-8.5,0,-8.5,0,1,45,1,1,0.4833275,59.999664
3,323,72,2,2,8.5,0,8.5,0,1,45,3,1,0.5000431,59.999664
3,324,11700,1,1,-8.5,0,8.5,0,0,0,2,1,0.5167186,59.999664
3,325,3300,1,1,8.5,0,8.5,0,1,0,2,1,0.4168022,59.999664
3,326,22,2,2,8.5,0,8.5,0,1,45,2,1,0.4668497,59.999664
3,327,76,2,1,8.5,0,8.5,0,1,45,4,1,0.4167218,59.999664
3,328,13000,1,1,8.5,0,-8.5,0,0,0,4,1,0.3833555,59.999664
3,329,63,2,2,-8.5,0,-8.5,0,1,45,4,1,0.4333849,59.999664
3,330,2100,1,1,8.5,0,8.5,0,1,0,3,1,0.3001301,59.999664
3,331,13800,1,2,-8.5,0,-8.5,0,1,45,3,1,0.3500415,59.999664
3,332,150,2,1,8.5,0,-8.5,0,0,45,3,1,0.4342467,59.999664
3,333,146,2,1,-8.5,0,8.5,0,0,45,2,1,0.6000247,59.999664
3,334,91,2,1,-8.5,0,-8.5,0,1,45,1,1,0.3501298,59.999664
3,335,27,2,2,8.5,0,-8.5,0,0,45,3,1,0.4500036,59.999664
3,336,157,2,1,-8.5,0,8.5,0,0,45,3,1,0.4001324,59.999664
3,337,80,2,2,8.5,0,-8.5,0,0,45,3,1,0.4334139,59.999664
3,338,13100,1,2,8.5,0,-8.5,0,0,45,2,1,0.3500458,59.999664
3,339,12100,1,1,8.5,0,-8.5,0,0,45,3,1,0.3334077,59.999664
3,340,40,2,1,8.5,0,-8.5,0,0,0,1,1,0.4834047,59.999664
3,341,13,2,1,8.5,0,8.5,0,1,0,2,1,0.3666575,59.999664
3,342,161,2,1,-8.5,0,8.5,0,0,45,3,1,0.4667539,59.999664
3,343,111,2,1,-8.5,0,-8.5,0,1,0,2,1,0.433364,59.999664
3,344,35,2,2,-8.5,0,8.5,0,0,45,1,1,0.4499747,59.999664
3,345,83,2,1,-8.5,0,-8.5,0,1,0,1,1,0.4333619,59.999664
3,346,120,2,1,8.5,0,8.5,0,1,0,1,0,0.4000269,59.999664
3,347,2900,1,2,-8.5,0,-8.5,0,1,0,2,1,0.4667541,59.999664
3,348,108,2,1,8.5,0,-8.5,0,0,0,2,1,0.4666459,59.999664
3,349,11700,1,2,8.5,0,8.5,0,1,0,1,1,0.4500368,59.999664
3,350,126,2,1,-8.5,0,8.5,0,0,0,4,1,0.3500225,59.999664
3,351,72,2,1,-8.5,0,-8.5,0,1,45,4,1,0.4001092,59.999664
3,352,6800,1,2,-8.5,0,8.5,0,0,45,2,1,0.4669179,59.999664
3,353,18,2,2,8.5,0,-8.5,0,0,0,2,1,0.3334459,59.999664
3,354,93,2,1,8.5,0,-8.5,0,0,0,1,1,0.3333735,59.999664
3,355,158,2,2,-8.5,0,8.5,0,0,45,4,1,0.5004461,59.999664
3,356,65,2,2,8.5,0,8.5,0,1,0,4,1,0.8500512,59.999664
3,357,27,2,2,8.5,0,8.5,0,1,0,1,1,0.3833603,59.999664
3,358,121,2,2,8.5,0,-8.5,0,0,0,2,1,0.4500218,59.999664
3,359,14300,1,2,-8.5,0,8.5,0,0,0,1,1,0.3666973,59.999664
3,360,134,2,2,-8.5,0,8.5,0,0,0,4,1,0.3184396,59.999664
3,361,110,2,1,8.5,0,8.5,0,1,0,2,1,0.2842021,59.999664
3,362,10300,1,1,8.5,0,8.5,0,1,0,4,1,0.3333831,59.999664
3,363,52,2,1,8.5,0,-8.5,0,0,45,2,0,0.3001191,59.999664
3,364,22,2,1,-8.5,0,-8.5,0,1,45,3,1,0.4845347,59.999664
3,365,100,2,2,8.5,0,-8.5,0,0,45,2,1,0.4833727,59.999664
3,366,71,2,1,8.5,0,8.5,0,1,0,3,1,0.4167402,59.999664
3,367,131,2,2,-8.5,0,-8.5,0,1,45,1,1,0.3499727,59.999664
3,368,96,2,1,-8.5,0,-8.5,0,1,0,3,1,0.3667006,59.999664
3,369,110,2,1,8.5,0,-8.5,0,0,0,3,0,0.4000278,59.999664
3,370,1,2,1,8.5,0,-8.5,0,0,0,1,1,0.6834141,59.999664
3,371,61,2,1,8.5,0,-8.5,0,0,0,4,1,0.4834309,59.999664
3,372,117,2,2,8.5,0,-8.5,0,0,45,4,0,0.4833766,59.999664
3,373,12100,1,1,8.5,0,8.5,0,1,45,2,1,0.549982,59.999664
3,374,12800,1,1,8.5,0,8.5,0,1,45,4,1,0.4500379,59.999664
3,375,35,2,2,-8.5,0,-8.5,0,1,45,4,1,0.4666692,59.999664
3,376,40,2,1,8.5,0,8.5,0,1,45,1,1,0.4500358,59.999664
3,377,8,2,2,-8.5,0,8.5,0,0,45,2,1,0.4500211,59.999664
3,378,55,2,2,8.5,0,-8.5,0,0,45,4,1,0.3666652,59.999664
3,379,32,2,2,-8.5,0,8.5,0,0,0,2,1,0.466643,59.999664
3,380,1200,1,2,8.5,0,-8.5,0,0,45,4,1,0.3511108,59.999664
3,381,10400,1,2,8.5,0,-8.5,0,0,45,4,1,0.4000627,59.999664
3,382,4100,1,2,-8.5,0,8.5,0,0,45,2,1,0.5167317,59.999664
3,383,117,2,1,-8.5,0,-8.5,0,1,45,2,1,0.4501622,59.999664
3,384,73,2,2,-8.5,0,-8.5,0,1,0,4,1,0.6167723,59.999664
3,385,25,2,1,-8.5,0,-8.5,0,1,45,4,1,0.3667842,59.999664
3,386,52,2,2,-8.5,0,8.5,0,0,45,3,1,0.5847484,59.999664
3,387,84,2,2,-8.5,0,8.5,0,0,45,1,1,0.366687,59.999664
3,388,132,2,1,-8.5,0,-8.5,0,1,0,2,1,0.4666297,59.999664
3,389,141,2,2,8.5,0,8.5,0,1,0,1,0,0.3334407,59.999664
3,390,3300,1,2,-8.5,0,-8.5,0,1,45,3,1,0.4500911,59.999664
3,391,158,2,1,8.5,0,8.5,0,1,0,3,1,0.4501329,59.999664
3,392,124,2,2,8.5,0,-8.5,0,0,45,1,1,0.453031,59.999664
3,393,62,2,2,8.5,0,-8.5,0,0,45,3,1,0.4834628,59.999664
3,394,144,2,1,8.5,0,8.5,0,1,45,4,1,0.3834655,59.999664
3,395,26,2,2,-8.5,0,-8.5,0,1,0,2,1,0.383364,59.999664
3,396,2100,1,1,8.5,0,-8.5,0,0,0,1,1,0.3512286,59.999664
3,397,13200,1,2,-8.5,0,-8.5,0,1,45,3,1,0.4500261,59.999664
3,398,95,2,1,8.5,0,8.5,0,1,45,3,1,0.5333816,59.999664
3,399,101,2,2,-8.5,0,8.5,0,0,0,4,1,0.3354622,59.999664
3,400,12300,1,2,-8.5,0,-8.5,0,1,0,1,1,0.4833674,59.999664
3,401,161,2,1,-8.5,0,-8.5,0,1,45,4,1,0.4167746,59.999664
3,402,38,2,2,8.5,0,8.5,0,1,0,1,0,0.366706,59.999664
3,403,27,2,1,-8.5,0,-8.5,0,1,45,2,1,0.4834086,59.999664
3,404,63,2,1,8.5,0,8.5,0,1,0,4,1,0.3167484,59.999664
3,405,98,2,1,8.5,0,-8.5,0,0,0,2,0,0.3167663,59.999664
3,406,109,2,2,8.5,0,8.5,0,1,45,3,1,0.5018516,59.999664
3,407,45,2,2,-8.5,0,8.5,0,0,0,4,1,0.3500136,59.999664
3,408,10300,1,2,-8.5,0,8.5,0,0,45,1,0,0.3167544,59.999664
3,409,33,2,2,8.5,0,8.5,0,1,0,3,1,0.2834655,59.999664
3,410,18,2,1,-8.5,0,-8.5,0,1,0,4,1,0.3839618,59.999664
3,411,87,2,2,-8.5,0,8.5,0,0,45,3,1,0.4500214,59.999664
3,412,14000,1,2,8.5,0,8.5,0,1,45,3,1,0.5501172,59.999664
3,413,9,2,1,-8.5,0,-8.5,0,1,45,1,1,0.4666464,59.999664
3,414,5,2,1,8.5,0,8.5,0,1,0,2,1,0.500004,59.999664
3,415,73,2,2,-8.5,0,8.5,0,0,45,1,1,0.4667391,59.999664
3,416,36,2,1,-8.5,0,-8.5,0,1,45,2,1,0.3834049,59.999664
3,417,2100,1,2,-8.5,0,-8.5,0,1,45,4,1,0.333366,59.999664
3,418,17,2,1,8.5,0,-8.5,0,0,0,3,1,0.4000471,59.999664
3,419,37,2,2,-8.5,0,8.5,0,0,45,3,1,0.5667742,59.999664
3,420,94,2,2,8.5,0,-8.5,0,0,0,1,1,0.4000388,59.999664
3,421,37,2,1,8.5,0,-8.5,0,0,45,2,1,0.3679439,59.999664
3,422,17,2,2,-8.5,0,8.5,0,0,45,3,1,0.5500213,59.999664
3,423,35,2,1,8.5,0,-8.5,0,0,0,4,1,0.4334043,59.999664
3,424,42,2,2,-8.5,0,-8.5,0,1,45,2,1,0.3834597,59.999664
3,425,7,2,2,8.5,0,8.5,0,1,45,2,0,0.2834703,59.999664
3,426,8,2,1,8.5,0,-8.5,0,0,45,2,1,0.4835022,59.999664
3,427,12800,1,1,8.5,0,-8.5,0,0,0,1,1,0.4667943,59.999664
3,428,136,2,1,-8.5,0,8.5,0,0,0,2,1,0.4167995,59.999664
3,429,55,2,1,-8.5,0,-8.5,0,1,0,3,1,0.5000463,59.999664
3,430,5,2,1,8.5,0,-8.5,0,0,45,3,1,0.4167082,59.999664
3,431,63,2,1,8.5,0,-8.5,0,0,0,4,1,0.3166946,59.999664
3,432,110,2,2,-8.5,0,-8.5,0,1,0,2,1,0.4167423,59.999664
3,433,75,2,2,8.5,0,-8.5,0,0,45,2,1,0.3500228,59.999664
3,434,129,2,2,8.5,0,-8.5,0,0,0,1,1,0.2694545,59.999664
3,435,162,2,2,-8.5,0,-8.5,0,1,0,2,1,0.3848975,59.999664
3,436,127,2,1,8.5,0,-8.5,0,0,0,3,1,0.4334139,59.999664
3,437,33,2,1,-8.5,0,8.5,0,0,0,1,1,0.4500322,59.999664
3,438,25,2,2,8.5,0,8.5,0,1,0,2,1,0.3334768,59.999664
3,439,17,2,1,8.5,0,8.5,0,1,0,2,1,0.3166474,59.999664
3,440,3,2,1,8.5,0,8.5,0,1,0,4,1,0.2500925,59.999664
3,441,14300,1,1,8.5,0,8.5,0,1,0,1,1,0.2167471,59.999664
3,442,10500,1,1,8.5,0,8.5,0,1,0,2,1,0.3334709,59.999664
3,443,41,2,2,8.5,0,-8.5,0,0,0,1,1,0.516704,59.999664
3,444,13000,1,2,-8.5,0,8.5,0,0,45,4,1,0.5500353,59.999664
3,445,141,2,1,-8.5,0,8.5,0,0,0,3,1,0.55056,59.999664
3,446,138,2,2,-8.5,0,-8.5,0,1,45,3,0,0.3362783,59.999664
3,447,152,2,2,8.5,0,-8.5,0,0,45,3,1,0.45013,59.999664
3,448,150,2,2,-8.5,0,-8.5,0,1,45,3,1,0.4167865,59.999664
3,449,1,2,2,-8.5,0,8.5,0,0,0,1,1,0.4334178,59.999664
3,450,60,2,2,8.5,0,-8.5,0,0,45,4,1,0.4000134,59.999664
3,451,12500,1,2,8.5,0,-8.5,0,0,45,3,1,0.4333655,59.999664
3,452,10400,1,2,8.5,0,8.5,0,1,0,3,1,0.4833664,59.999664
3,453,138,2,2,-8.5,0,8.5,0,0,0,4,1,0.4350915,59.999664
3,454,56,2,2,-8.5,0,8.5,0,0,0,2,1,0.4833648,59.999664
3,455,10400,1,1,-8.5,0,-8.5,0,1,0,3,0,0.4501183,59.999664
3,456,138,2,1,8.5,0,-8.5,0,0,45,3,1,0.3666699,59.999664
3,457,60,2,1,-8.5,0,-8.5,0,1,45,4,1,0.8166889,59.999664
3,458,9,2,2,8.5,0,8.5,0,1,0,2,1,0.3500295,59.999664
3,459,80,2,1,-8.5,0,-8.5,0,1,45,3,1,0.3358268,59.999664
3,460,10100,1,2,-8.5,0,-8.5,0,1,45,3,1,0.3666322,59.999664
3,461,6900,1,1,8.5,0,-8.5,0,0,45,2,1,0.5001369,59.999664
3,462,10500,1,2,-8.5,0,-8.5,0,1,0,2,1,0.4000188,59.999664
3,463,126,2,1,-8.5,0,-8.5,0,1,45,4,1,0.4833058,59.999664
3,464,113,2,2,-8.5,0,-8.5,0,1,45,3,1,0.4172638,59.999664
3,465,75,2,2,8.5,0,8.5,0,1,45,1,1,0.533452,59.999664
3,466,101,2,2,-8.5,0,-8.5,0,1,45,3,1,0.433461,59.999664
3,467,75,2,1,-8.5,0,-8.5,0,1,45,2,1,0.4334658,59.999664
3,468,105,2,1,-8.5,0,-8.5,0,1,45,3,1,0.3833714,59.999664
3,469,73,2,1,8.5,0,8.5,0,1,0,1,1,0.3501321,59.999664
3,470,52,2,1,8.5,0,8.5,0,1,0,2,1,0.3001202,59.999664
3,471,26,2,2,-8.5,0,8.5,0,0,0,1,1,0.3334539,59.999664
3,472,127,2,2,-8.5,0,-8.5,0,1,0,2,0,0.3334591,59.999664
3,473,3,2,2,-8.5,0,-8.5,0,1,0,2,1,0.6000007,59.999664
3,474,36,2,2,8.5,0,8.5,0,1,45,4,1,0.3841489,59.999664
3,475,138,2,1,8.5,0,8.5,0,1,0,4,1,0.616657,59.999664
3,476,95,2,1,8.5,0,-8.5,0,0,45,4,1,0.3834168,59.999664
3,477,80,2,2,8.5,0,8.5,0,1,45,1,1,0.4682413,59.999664
3,478,105,2,2,8.5,0,8.5,0,1,45,3,1,0.3334055,59.999664
3,479,129,2,1,-8.5,0,-8.5,0,1,45,1,1,0.4667778,59.999664
3,480,36,2,2,8.5,0,-8.5,0,0,45,3,1,0.3348155,59.999664
3,481,106,2,1,8.5,0,-8.5,0,0,45,1,1,0.3333768,59.999664
3,482,98,2,1,8.5,0,8.5,0,1,45,2,1,0.3500426,59.999664
3,483,72,2,2,8.5,0,-8.5,0,0,0,1,1,0.4500508,59.999664
3,484,2200,1,2,8.5,0,-8.5,0,0,45,2,1,0.3167073,59.999664
3,485,106,2,2,-8.5,0,-8.5,0,1,0,1,1,0.4667862,59.999664
3,486,158,2,2,-8.5,0,-8.5,0,1,45,4,1,0.3501038,59.999664
3,487,49,2,1,-8.5,0,8.5,0,0,0,3,1,0.283404,59.999664
3,488,79,2,1,8.5,0,8.5,0,1,0,2,1,0.2836488,59.999664
3,489,25,2,2,8.5,0,-8.5,0,0,45,2,1,0.6333576,59.999664
3,490,37,2,1,8.5,0,8.5,0,1,0,3,1,0.3333513,59.999664
3,491,10800,1,2,-8.5,0,8.5,0,0,0,3,1,0.333388,59.999664
3,492,48,2,1,8.5,0,-8.5,0,0,45,3,1,0.4000512,59.999664
3,493,48,2,2,-8.5,0,-8.5,0,1,0,4,1,0.3500484,59.999664
3,494,6300,1,1,-8.5,0,-8.5,0,1,45,1,1,0.3833826,59.999664
3,495,93,2,2,-8.5,0,-8.5,0,1,45,4,1,0.4166639,59.999664
3,496,14100,1,1,8.5,0,-8.5,0,0,0,2,1,0.266693,59.999664
3,497,69,2,1,8.5,0,8.5,0,1,0,1,1,0.266687,59.999664
3,498,11,2,1,-8.5,0,-8.5,0,1,45,3,1,0.3002021,59.999664
3,499,2,2,2,8.5,0,-8.5,0,0,45,4,1,0.3332382,59.999664
3,500,16,2,2,8.5,0,-8.5,0,0,45,1,0,0.2833841,59.999664
3,501,40,2,2,-8.5,0,8.5,0,0,0,4,1,0.3335645,59.999664
3,502,134,2,1,8.5,0,8.5,0,1,0,4,1,0.3833726,59.999664
3,503,122,2,2,-8.5,0,8.5,0,0,45,2,1,0.500044,59.999664
3,504,127,2,2,-8.5,0,8.5,0,0,0,3,1,0.3003496,59.999664
3,505,100,2,1,-8.5,0,8.5,0,0,0,2,1,0.3334559,59.999664
3,506,33,2,1,-8.5,0,-8.5,0,1,0,2,1,0.4166409,59.999664
3,507,20,2,2,-8.5,0,8.5,0,0,0,1,1,0.3834093,59.999664
3,508,62,2,1,-8.5,0,-8.5,0,1,0,1,1,0.3334068,59.999664
3,509,108,2,2,-8.5,0,8.5,0,0,0,3,1,0.6334068,59.999664
3,510,12100,1,2,-8.5,0,-8.5,0,1,0,2,1,0.4176347,59.999664
3,511,13800,1,1,8.5,0,-8.5,0,0,45,3,1,0.483379,59.999664
3,512,150,2,1,8.5,0,8.5,0,1,0,1,1,0.2833885,59.999664
3,513,6900,1,1,8.5,0,8.5,0,1,45,4,1,0.4167658,59.999664
3,514,162,2,1,8.5,0,-8.5,0,0,45,4,1,0.3667747,59.999664
3,515,38,2,1,-8.5,0,-8.5,0,1,0,2,1,0.4334427,59.999664
3,516,121,2,2,8.5,0,8.5,0,1,0,1,1,0.3833694,59.999664
3,517,42,2,1,8.5,0,8.5,0,1,45,3,1,0.3666332,59.999664
3,518,68,2,2,8.5,0,-8.5,0,0,0,4,1,0.4501005,59.999664
3,519,87,2,1,8.5,0,-8.5,0,0,45,4,1,0.4685644,59.999664
3,520,101,2,1,8.5,0,8.5,0,1,45,1,0,0.3167326,59.999664
3,521,400,1,1,8.5,0,-8.5,0,0,45,4,1,0.4000189,59.999664
3,522,14100,1,2,-8.5,0,8.5,0,0,45,3,1,0.4667861,59.999664
3,523,10400,1,1,-8.5,0,8.5,0,0,0,2,1,0.366777,59.999664
3,524,120,2,2,-8.5,0,8.5,0,0,45,2,1,0.4500363,59.999664
3,525,38,2,2,8.5,0,-8.5,0,0,45,2,1,0.4348725,59.999664
3,526,11,2,1,-8.5,0,8.5,0,0,45,3,1,0.533454,59.999664
3,527,16,2,1,-8.5,0,-8.5,0,1,45,4,1,0.3500239,59.999664
3,528,23,2,2,-8.5,0,8.5,0,0,45,2,1,0.483388,59.999664
3,529,157,2,1,-8.5,0,-8.5,0,1,45,1,1,0.4000345,59.999664
3,530,153,2,1,8.5,0,8.5,0,1,45,3,1,0.3840719,59.999664
3,531,38,2,1,-8.5,0,8.5,0,0,45,2,1,0.450048,59.999664
3,532,158,2,1,8.5,0,-8.5,0,0,0,1,1,0.5185836,59.999664
3,533,142,2,1,8.5,0,-8.5,0,0,45,2,1,0.4500575,59.999664
3,534,91,2,2,8.5,0,8.5,0,1,0,2,1,0.4333823,59.999664
3,535,86,2,2,8.5,0,-8.5,0,0,45,3,1,0.4166249,59.999664
3,536,10,2,2,-8.5,0,8.5,0,0,45,1,1,0.5833749,59.999664
3,537,142,2,1,8.5,0,8.5,0,1,45,3,1,0.4500507,59.999664
3,538,80,2,1,-8.5,0,8.5,0,0,45,3,1,0.5167744,59.999664
3,539,13,2,2,-8.5,0,-8.5,0,1,0,2,1,0.4845228,59.999664
3,540,144,2,2,-8.5,0,8.5,0,0,45,4,1,0.4834037,59.999664
3,541,143,2,1,-8.5,0,8.5,0,0,0,1,1,0.333318,59.999664
3,542,43,2,1,-8.5,0,8.5,0,0,0,1,1,0.4000318,59.999664
3,543,7,2,2,8.5,0,-8.5,0,0,45,2,1,0.4347222,59.999664
3,544,1800,1,1,8.5,0,8.5,0,1,45,4,1,0.4500316,59.999664
3,545,1200,1,1,-8.5,0,8.5,0,0,45,4,0,0.3834098,59.999664
3,546,121,2,1,-8.5,0,8.5,0,0,0,3,1,0.3507846,59.999664
3,547,13100,1,1,-8.5,0,8.5,0,0,0,2,1,0.4167449,59.999664
3,548,106,2,1,8.5,0,8.5,0,1,45,2,1,0.4834179,59.999664
3,549,143,2,1,-8.5,0,-8.5,0,1,45,3,1,0.3833471,59.999664
3,550,91,2,2,8.5,0,-8.5,0,0,0,1,1,0.483409,59.999664
3,551,124,2,2,8.5,0,8.5,0,1,45,3,1,0.4833284,59.999664
3,552,6300,1,1,-8.5,0,8.5,0,0,45,3,1,0.4667564,59.999664
3,553,55,2,2,8.5,0,8.5,0,1,45,2,1,0.4000549,59.999664
3,554,109,2,1,-8.5,0,-8.5,0,1,45,3,1,0.3667282,59.999664
3,555,10300,1,2,-8.5,0,-8.5,0,1,45,2,1,0.4167929,59.999664
3,556,106,2,2,-8.5,0,8.5,0,0,45,4,0,0.3167841,59.999664
3,557,9,2,2,8.5,0,-8.5,0,0,0,2,0,0.3334524,59.999664
3,558,26,2,1,8.5,0,8.5,0,1,45,4,1,0.6667084,59.999664
3,559,16,2,2,8.5,0,8.5,0,1,45,1,1,0.5333446,59.999664
3,560,111,2,1,-8.5,0,8.5,0,0,0,1,1,0.3334241,59.999664
3,561,77,2,2,8.5,0,-8.5,0,0,45,1,1,0.3666946,59.999664
3,562,150,2,2,-8.5,0,8.5,0,0,45,3,0,0.3333643,59.999664
3,563,23,2,1,8.5,0,8.5,0,1,45,4,1,0.5666869,59.999664
3,564,48,2,1,8.5,0,8.5,0,1,0,1,1,0.5334575,59.999664
3,565,13,2,2,-8.5,0,8.5,0,0,45,2,1,0.4667423,59.999664
3,566,10100,1,1,8.5,0,8.5,0,1,0,4,1,0.3334577,59.999664
3,567,20,2,2,-8.5,0,-8.5,0,1,45,4,1,0.4166863,59.999664
4,0,58,2,2,8.5,0,8.5,0,1,0,2,1,0.6333675,60.00099602
4,1,17200,1,1,-8.5,0,-8.5,0,1,45,4,1,0.7167092,60.00099602
4,2,9,2,1,8.5,0,-8.5,0,0,45,3,1,0.783375,60.00099602
4,3,144,2,2,-8.5,0,8.5,0,0,45,3,1,0.7334624,60.00099602
4,4,87,2,2,-8.5,0,8.5,0,0,0,1,1,0.650014,60.00099602
4,5,115,2,2,8.5,0,-8.5,0,0,0,2,1,0.683347,60.00099602
4,6,60,2,1,8.5,0,8.5,0,1,45,2,1,0.6333439,60.00099602
4,7,86,2,1,-8.5,0,-8.5,0,1,0,3,1,0.5833753,60.00099602
4,8,48,2,2,8.5,0,8.5,0,1,45,1,1,0.583336,60.00099602
4,9,1200,1,2,8.5,0,-8.5,0,0,45,3,1,0.6333523,60.00099602
4,10,120,2,2,8.5,0,8.5,0,1,0,2,1,0.5834429,60.00099602
4,11,10800,1,2,-8.5,0,-8.5,0,1,45,4,1,0.6000111,60.00099602
4,12,52,2,2,8.5,0,-8.5,0,0,45,1,1,0.5834134,60.00099602
4,13,131,2,1,-8.5,0,8.5,0,0,45,4,1,0.7333652,60.00099602
4,14,10400,1,2,8.5,0,-8.5,0,0,45,4,1,0.6833936,60.00099602
4,15,66,2,1,-8.5,0,8.5,0,0,45,3,1,0.5834131,60.00099602
4,16,10100,1,1,-8.5,0,-8.5,0,1,0,4,1,0.5511035,60.00099602
4,17,126,2,2,8.5,0,8.5,0,1,0,1,1,0.6333753,60.00099602
4,18,6300,1,2,8.5,0,-8.5,0,0,0,2,1,0.6333799,60.00099602
4,19,101,2,2,8.5,0,8.5,0,1,45,3,1,0.5833588,60.00099602
4,20,143,2,2,8.5,0,8.5,0,1,0,1,1,0.6167812,60.00099602
4,21,45,2,2,-8.5,0,-8.5,0,1,0,1,1,0.5333736,60.00099602
4,22,161,2,1,-8.5,0,8.5,0,0,0,1,1,0.6500199,60.00099602
4,23,144,2,2,-8.5,0,-8.5,0,1,45,4,1,0.5834361,60.00099602
4,24,2,2,1,8.5,0,8.5,0,1,45,4,1,0.650109,60.00099602
4,25,27,2,1,8.5,0,8.5,0,1,45,4,1,0.5833931,60.00099602
4,26,121,2,2,-8.5,0,-8.5,0,1,0,2,1,0.5500119,60.00099602
4,27,43,2,2,8.5,0,-8.5,0,0,0,1,1,0.6844284,60.00099602
4,28,72,2,1,-8.5,0,8.5,0,0,0,2,1,0.7833514,60.00099602
4,29,86,2,1,-8.5,0,8.5,0,0,45,4,1,0.6000497,60.00099602
4,30,129,2,1,8.5,0,-8.5,0,0,0,2,1,0.6000404,60.00099602
4,31,60,2,1,8.5,0,-8.5,0,0,0,4,1,0.5833088,60.00099602
4,32,31,2,2,8.5,0,-8.5,0,0,45,3,1,0.6499928,60.00099602
4,33,70,2,1,-8.5,0,-8.5,0,1,0,2,1,0.6334402,60.00099602
4,34,105,2,1,8.5,0,-8.5,0,0,0,2,1,0.6167894,60.00099602
4,35,150,2,2,8.5,0,8.5,0,1,45,3,1,0.5333516,60.00099602
4,36,14000,1,2,8.5,0,-8.5,0,0,45,3,1,0.6667218,60.00099602
4,37,138,2,2,8.5,0,-8.5,0,0,45,4,1,0.6166191,60.00099602
4,38,2900,1,1,8.5,0,8.5,0,1,45,3,1,0.9000169,60.00099602
4,39,134,2,1,8.5,0,8.5,0,1,0,1,1,0.5667169,60.00099602
4,40,142,2,2,8.5,0,-8.5,0,0,0,3,1,0.6833499,60.00099602
4,41,12100,1,2,8.5,0,8.5,0,1,0,1,1,0.6333457,60.00099602
4,42,9200,1,1,-8.5,0,-8.5,0,1,45,3,1,0.601084,60.00099602
4,43,20,2,1,-8.5,0,-8.5,0,1,0,1,1,0.5688642,60.00099602
4,44,125,2,1,8.5,0,-8.5,0,0,0,3,1,0.7000189,60.00099602
4,45,13100,1,2,8.5,0,-8.5,0,0,45,4,1,0.8166386,60.00099602
4,46,41,2,2,-8.5,0,-8.5,0,1,0,2,1,0.633443,60.00099602
4,47,2200,1,1,-8.5,0,-8.5,0,1,0,3,1,0.5999738,60.00099602
4,48,12500,1,2,8.5,0,-8.5,0,0,0,3,1,0.7167569,60.00099602
4,49,14300,1,1,8.5,0,-8.5,0,0,45,2,1,0.6180503,60.00099602
4,50,109,2,1,-8.5,0,-8.5,0,1,45,4,1,0.650932,60.00099602
4,51,4,2,2,8.5,0,8.5,0,1,0,3,1,0.6667059,60.00099602
4,52,143,2,2,8.5,0,-8.5,0,0,45,3,1,0.6667024,60.00099602
4,53,6800,1,1,-8.5,0,8.5,0,0,45,2,1,0.6333362,60.00099602
4,54,66,2,2,8.5,0,-8.5,0,0,0,1,1,0.6334766,60.00099602
4,55,10,2,2,8.5,0,8.5,0,1,45,1,1,0.5334473,60.00099602
4,56,26,2,2,8.5,0,-8.5,0,0,0,2,1,0.5666962,60.00099602
4,57,25,2,2,8.5,0,8.5,0,1,0,1,1,0.6834224,60.00099602
4,58,12300,1,2,-8.5,0,-8.5,0,1,45,2,1,0.6009316,60.00099602
4,59,1800,1,1,-8.5,0,8.5,0,0,0,4,1,0.7667667,60.00099602
4,60,10500,1,1,-8.5,0,-8.5,0,1,0,1,1,0.6166654,60.00099602
4,61,77,2,1,-8.5,0,8.5,0,0,45,3,1,0.4999805,60.00099602
4,62,65,2,1,-8.5,0,-8.5,0,1,0,1,1,0.8667764,60.00099602
4,63,120,2,2,8.5,0,-8.5,0,0,0,3,1,0.6167706,60.00099602
4,64,65,2,1,-8.5,0,8.5,0,0,45,4,1,0.5001358,60.00099602
4,65,38,2,1,-8.5,0,-8.5,0,1,0,4,1,0.5167979,60.00099602
4,66,80,2,2,8.5,0,-8.5,0,0,45,1,1,0.5833451,60.00099602
4,67,49,2,2,-8.5,0,-8.5,0,1,0,3,1,0.5500236,60.00099602
4,68,162,2,2,8.5,0,-8.5,0,0,0,1,1,0.5167138,60.00099602
4,69,94,2,1,8.5,0,8.5,0,1,45,4,1,0.6501229,60.00099602
4,70,75,2,1,8.5,0,-8.5,0,0,45,1,1,0.6500973,60.00099602
4,71,100,2,2,8.5,0,-8.5,0,0,0,3,1,0.7667777,60.00099602
4,72,79,2,2,-8.5,0,8.5,0,0,0,4,1,0.6667292,60.00099602
4,73,13800,1,2,-8.5,0,8.5,0,0,0,4,1,0.6500054,60.00099602
4,74,13,2,1,8.5,0,8.5,0,1,45,2,1,0.5834625,60.00099602
4,75,63,2,2,-8.5,0,8.5,0,0,0,2,1,0.6334145,60.00099602
4,76,10100,1,2,8.5,0,-8.5,0,0,45,3,1,0.5834176,60.00099602
4,77,95,2,2,8.5,0,-8.5,0,0,45,3,1,0.6008627,60.00099602
4,78,29,2,2,8.5,0,8.5,0,1,45,3,1,0.5667187,60.00099602
4,79,129,2,1,8.5,0,8.5,0,1,0,3,1,0.5667946,60.00099602
4,80,106,2,2,8.5,0,-8.5,0,0,0,4,1,0.6167948,60.00099602
4,81,146,2,2,8.5,0,-8.5,0,0,45,3,1,0.6334704,60.00099602
4,82,150,2,1,-8.5,0,8.5,0,0,45,4,1,0.5333872,60.00099602
4,83,96,2,1,-8.5,0,-8.5,0,1,0,1,1,0.5333983,60.00099602
4,84,136,2,1,-8.5,0,-8.5,0,1,45,2,1,0.533453,60.00099602
4,85,5,2,1,8.5,0,8.5,0,1,0,1,1,0.6342461,60.00099602
4,86,14100,1,1,-8.5,0,-8.5,0,1,45,4,1,0.6001321,60.00099602
4,87,143,2,1,-8.5,0,8.5,0,0,45,1,1,0.5500511,60.00099602
4,88,400,1,1,8.5,0,8.5,0,1,45,3,1,0.5834327,60.00099602
4,89,116,2,2,-8.5,0,8.5,0,0,45,3,1,0.6667507,60.00099602
4,90,113,2,1,-8.5,0,8.5,0,0,0,2,1,0.5834083,60.00099602
4,91,56,2,2,-8.5,0,8.5,0,0,0,1,1,0.666698,60.00099602
4,92,113,2,2,8.5,0,8.5,0,1,45,3,1,0.5500324,60.00099602
4,93,81,2,1,-8.5,0,8.5,0,0,0,2,1,0.7834558,60.00099602
4,94,1800,1,1,-8.5,0,-8.5,0,1,0,2,1,0.5169752,60.00099602
4,95,6300,1,1,-8.5,0,-8.5,0,1,0,4,1,0.6167759,60.00099602
4,96,40,2,2,8.5,0,8.5,0,1,45,4,1,0.6334182,60.00099602
4,97,79,2,1,8.5,0,-8.5,0,0,0,4,1,0.7000494,60.00099602
4,98,2100,1,1,8.5,0,-8.5,0,0,0,4,1,0.56672,60.00099602
4,99,20,2,2,8.5,0,8.5,0,1,0,3,1,0.5667656,60.00099602
4,100,93,2,1,-8.5,0,-8.5,0,1,0,1,1,0.5000989,60.00099602
4,101,12500,1,2,8.5,0,8.5,0,1,0,1,1,0.5667665,60.00099602
4,102,111,2,2,-8.5,0,8.5,0,0,0,4,1,0.5666467,60.00099602
4,103,22,2,1,-8.5,0,8.5,0,0,45,2,1,0.5500441,60.00099602
4,104,11700,1,2,8.5,0,-8.5,0,0,0,2,1,0.5666599,60.00099602
4,105,1,2,1,-8.5,0,8.5,0,0,45,2,1,0.6166491,60.00099602
4,106,124,2,1,-8.5,0,8.5,0,0,0,4,1,0.549969,60.00099602
4,107,6300,1,1,-8.5,0,8.5,0,0,45,3,1,0.5333669,60.00099602
4,108,3,2,2,8.5,0,-8.5,0,0,45,1,1,0.5501141,60.00099602
4,109,6800,1,2,8.5,0,8.5,0,1,45,4,1,0.5501099,60.00099602
4,110,126,2,1,-8.5,0,-8.5,0,1,45,4,1,0.5173327,60.00099602
4,111,77,2,2,8.5,0,-8.5,0,0,45,4,1,0.5667004,60.00099602
4,112,121,2,2,-8.5,0,8.5,0,0,0,2,1,0.6501273,60.00099602
4,113,32,2,2,8.5,0,8.5,0,1,45,3,1,0.6000453,60.00099602
4,114,10400,1,2,8.5,0,8.5,0,1,0,1,0,0.7333762,60.00099602
4,115,105,2,2,-8.5,0,-8.5,0,1,45,3,1,0.6334641,60.00099602
4,116,136,2,1,-8.5,0,8.5,0,0,0,3,1,0.6334584,60.00099602
4,117,10800,1,1,8.5,0,8.5,0,1,0,2,1,0.6333701,60.00099602
4,118,4100,1,1,8.5,0,-8.5,0,0,0,3,1,0.6835746,60.00099602
4,119,111,2,2,-8.5,0,-8.5,0,1,0,1,1,0.6167543,60.00099602
4,120,17,2,1,-8.5,0,8.5,0,0,0,1,1,0.5501326,60.00099602
4,121,43,2,1,-8.5,0,-8.5,0,1,0,3,1,0.5833485,60.00099602
4,122,1,2,1,-8.5,0,-8.5,0,1,0,1,1,0.5500658,60.00099602
4,123,3100,1,2,8.5,0,8.5,0,1,0,2,1,0.5501039,60.00099602
4,124,6800,1,2,8.5,0,-8.5,0,0,0,3,1,0.5833974,60.00099602
4,125,2900,1,2,-8.5,0,8.5,0,0,45,3,1,0.6499763,60.00099602
4,126,126,2,2,8.5,0,-8.5,0,0,0,2,1,0.5675988,60.00099602
4,127,3300,1,1,-8.5,0,-8.5,0,1,45,1,1,0.5667776,60.00099602
4,128,126,2,1,-8.5,0,8.5,0,0,45,1,1,0.5168066,60.00099602
4,129,110,2,1,-8.5,0,8.5,0,0,0,4,1,0.6001036,60.00099602
4,130,1200,1,2,8.5,0,8.5,0,1,45,4,1,0.5334314,60.00099602
4,131,101,2,2,8.5,0,-8.5,0,0,0,2,1,0.5500765,60.00099602
4,132,71,2,2,-8.5,0,-8.5,0,1,0,3,1,0.5000652,60.00099602
4,133,134,2,2,-8.5,0,-8.5,0,1,45,2,1,0.5501328,60.00099602
4,134,11,2,2,8.5,0,-8.5,0,0,45,3,1,0.5167535,60.00099602
4,135,52,2,2,8.5,0,8.5,0,1,0,4,1,0.5333761,60.00099602
4,136,60,2,2,-8.5,0,8.5,0,0,45,2,1,0.5167195,60.00099602
4,137,47,2,1,-8.5,0,-8.5,0,1,45,3,1,0.5000512,60.00099602
4,138,13100,1,1,-8.5,0,8.5,0,0,45,3,1,0.5499697,60.00099602
4,139,2600,1,1,-8.5,0,-8.5,0,1,0,4,1,0.7334084,60.00099602
4,140,10800,1,2,-8.5,0,8.5,0,0,45,3,1,0.5167993,60.00099602
4,141,79,2,1,8.5,0,8.5,0,1,0,1,1,0.7333238,60.00099602
4,142,56,2,1,8.5,0,-8.5,0,0,0,4,1,0.6501302,60.00099602
4,143,8,2,1,-8.5,0,8.5,0,0,45,4,1,0.6000946,60.00099602
4,144,68,2,1,8.5,0,8.5,0,1,0,1,1,0.5834673,60.00099602
4,145,107,2,1,-8.5,0,8.5,0,0,45,3,1,0.6179604,60.00099602
4,146,1,2,2,8.5,0,-8.5,0,0,45,4,1,0.6500367,60.00099602
4,147,124,2,2,8.5,0,8.5,0,1,45,4,1,0.6333702,60.00099602
4,148,48,2,2,8.5,0,-8.5,0,0,45,2,1,0.4841988,60.00099602
4,149,86,2,2,8.5,0,8.5,0,1,0,3,1,0.4500399,60.00099602
4,150,110,2,1,-8.5,0,-8.5,0,1,0,1,1,0.6333589,60.00099602
4,151,13800,1,1,8.5,0,8.5,0,1,45,3,1,0.7001041,60.00099602
4,152,13100,1,2,8.5,0,8.5,0,1,0,2,1,0.7833818,60.00099602
4,153,13200,1,1,-8.5,0,-8.5,0,1,45,4,1,0.6667753,60.00099602
4,154,113,2,1,-8.5,0,-8.5,0,1,45,4,1,0.6183916,60.00099602
4,155,18,2,1,8.5,0,-8.5,0,0,0,2,1,0.6334539,60.00099602
4,156,124,2,2,8.5,0,-8.5,0,0,0,1,1,0.5834564,60.00099602
4,157,38,2,1,-8.5,0,8.5,0,0,45,4,1,0.5339203,60.00099602
4,158,6900,1,1,8.5,0,8.5,0,1,0,1,1,0.5167122,60.00099602
4,159,107,2,2,8.5,0,-8.5,0,0,45,3,1,0.5166857,60.00099602
4,160,29,2,1,-8.5,0,8.5,0,0,45,4,1,0.6167733,60.00099602
4,161,12100,1,2,8.5,0,-8.5,0,0,45,2,1,0.5851835,60.00099602
4,162,138,2,1,-8.5,0,-8.5,0,1,0,3,1,0.4667986,60.00099602
4,163,14100,1,2,8.5,0,-8.5,0,0,45,1,1,0.5167949,60.00099602
4,164,31,2,1,-8.5,0,8.5,0,0,0,2,1,0.500122,60.00099602
4,165,10100,1,1,-8.5,0,8.5,0,0,45,3,1,0.6172577,60.00099602
4,166,3300,1,1,-8.5,0,8.5,0,0,45,3,1,0.6000498,60.00099602
4,167,26,2,1,-8.5,0,-8.5,0,1,0,4,1,0.5500851,60.00099602
4,168,8,2,1,-8.5,0,-8.5,0,1,0,2,1,0.6167061,60.00099602
4,169,93,2,2,8.5,0,8.5,0,1,45,2,1,0.7001345,60.00099602
4,170,84,2,1,-8.5,0,-8.5,0,1,45,2,1,0.5333821,60.00099602
4,171,157,2,1,-8.5,0,-8.5,0,1,0,4,1,0.5833308,60.00099602
4,172,400,1,2,-8.5,0,8.5,0,0,45,3,1,0.5844838,60.00099602
4,173,42,2,1,-8.5,0,8.5,0,0,0,1,1,0.5001061,60.00099602
4,174,77,2,1,-8.5,0,-8.5,0,1,45,2,1,0.5167475,60.00099602
4,175,30,2,2,-8.5,0,-8.5,0,1,45,1,1,0.5667536,60.00099602
4,176,73,2,2,8.5,0,-8.5,0,0,0,1,1,0.616803,60.00099602
4,177,72,2,2,8.5,0,-8.5,0,0,0,2,1,0.5499806,60.00099602
4,178,108,2,1,8.5,0,8.5,0,1,45,1,1,0.5000214,60.00099602
4,179,117,2,2,8.5,0,-8.5,0,0,0,1,1,0.5517248,60.00099602
4,180,76,2,1,-8.5,0,-8.5,0,1,45,4,1,0.5000157,60.00099602
4,181,83,2,2,-8.5,0,8.5,0,0,0,4,1,0.5668426,60.00099602
4,182,1800,1,2,8.5,0,-8.5,0,0,45,3,1,0.5500401,60.00099602
4,183,3300,1,2,8.5,0,8.5,0,1,45,4,1,0.5667208,60.00099602
4,184,3100,1,1,-8.5,0,-8.5,0,1,0,2,1,0.5501344,60.00099602
4,185,40,2,2,8.5,0,-8.5,0,0,0,3,1,0.5667,60.00099602
4,186,98,2,2,-8.5,0,-8.5,0,1,45,2,1,0.5834028,60.00099602
4,187,400,1,2,-8.5,0,-8.5,0,1,0,4,1,0.6834046,60.00099602
4,188,152,2,1,8.5,0,-8.5,0,0,0,2,1,0.6333605,60.00099602
4,189,57,2,2,8.5,0,8.5,0,1,45,3,1,0.5834679,60.00099602
4,190,3100,1,1,-8.5,0,8.5,0,0,45,4,1,0.7166691,60.00099602
4,191,127,2,1,-8.5,0,8.5,0,0,0,2,1,0.6333514,60.00099602
4,192,61,2,2,8.5,0,-8.5,0,0,45,4,1,0.7016249,60.00099602
4,193,142,2,2,8.5,0,8.5,0,1,45,3,1,0.6500138,60.00099602
4,194,40,2,1,-8.5,0,8.5,0,0,45,3,1,0.6000416,60.00099602
4,195,9200,1,2,8.5,0,8.5,0,1,45,1,1,0.6166925,60.00099602
4,196,84,2,2,8.5,0,8.5,0,1,0,2,1,0.5667776,60.00099602
4,197,32,2,1,-8.5,0,8.5,0,0,0,4,1,0.6833077,60.00099602
4,198,13800,1,1,8.5,0,-8.5,0,0,0,2,1,0.7000629,60.00099602
4,199,142,2,1,-8.5,0,8.5,0,0,0,2,1,0.6834691,60.00099602
4,200,153,2,2,8.5,0,8.5,0,1,45,1,1,0.5833234,60.00099602
4,201,141,2,1,8.5,0,-8.5,0,0,0,2,1,0.6166946,60.00099602
4,202,122,2,1,-8.5,0,8.5,0,0,0,2,1,0.6167117,60.00099602
4,203,17300,1,2,8.5,0,-8.5,0,0,0,4,1,0.5834749,60.00099602
4,204,65,2,2,8.5,0,8.5,0,1,0,2,1,0.4833686,60.00099602
4,205,144,2,1,8.5,0,8.5,0,1,0,3,1,0.6010316,60.00099602
4,206,7,2,2,8.5,0,8.5,0,1,45,1,1,0.6510836,60.00099602
4,207,10800,1,1,8.5,0,-8.5,0,0,45,3,1,0.8166969,60.00099602
4,208,2,2,1,8.5,0,-8.5,0,0,0,1,1,0.6333927,60.00099602
4,209,69,2,1,-8.5,0,8.5,0,0,45,3,1,0.6667018,60.00099602
4,210,62,2,2,8.5,0,8.5,0,1,0,2,1,0.4668,60.00099602
4,211,132,2,1,-8.5,0,-8.5,0,1,45,4,1,0.5501022,60.00099602
4,212,2100,1,1,8.5,0,8.5,0,1,45,3,1,0.5833977,60.00099602
4,213,70,2,2,8.5,0,8.5,0,1,0,4,1,0.5334185,60.00099602
4,214,158,2,1,8.5,0,-8.5,0,0,0,2,1,0.6000081,60.00099602
4,215,76,2,2,8.5,0,8.5,0,1,45,3,1,0.6000134,60.00099602
4,216,83,2,1,8.5,0,-8.5,0,0,45,3,1,0.6166468,60.00099602
4,217,65,2,2,8.5,0,-8.5,0,0,45,3,1,0.6334045,60.00099602
4,218,125,2,2,-8.5,0,8.5,0,0,45,4,1,0.6334941,60.00099602
4,219,108,2,1,8.5,0,-8.5,0,0,0,4,1,0.6001244,60.00099602
4,220,10300,1,2,-8.5,0,8.5,0,0,0,1,1,0.6833651,60.00099602
4,221,136,2,2,8.5,0,8.5,0,1,45,4,1,0.6667759,60.00099602
4,222,134,2,1,8.5,0,-8.5,0,0,0,4,1,0.5834393,60.00099602
4,223,2900,1,1,8.5,0,-8.5,0,0,45,3,1,0.5333892,60.00099602
4,224,57,2,1,-8.5,0,-8.5,0,1,0,1,1,0.5500307,60.00099602
4,225,31,2,1,-8.5,0,-8.5,0,1,0,1,1,0.5506007,60.00099602
4,226,14300,1,2,-8.5,0,-8.5,0,1,45,2,1,0.5667464,60.00099602
4,227,48,2,1,-8.5,0,-8.5,0,1,0,2,1,0.6167756,60.00099602
4,228,117,2,1,-8.5,0,-8.5,0,1,0,3,1,0.5833905,60.00099602
4,229,14000,1,2,8.5,0,8.5,0,1,0,3,1,0.5834367,60.00099602
4,230,122,2,2,8.5,0,8.5,0,1,0,4,1,0.5500092,60.00099602
4,231,17300,1,1,-8.5,0,-8.5,0,1,45,2,1,0.5001216,60.00099602
4,232,107,2,1,-8.5,0,-8.5,0,1,45,4,1,0.5000494,60.00099602
4,233,98,2,1,8.5,0,8.5,0,1,0,4,1,0.4167673,60.00099602
4,234,95,2,1,-8.5,0,-8.5,0,1,0,2,1,0.5833304,60.00099602
4,235,400,1,1,8.5,0,-8.5,0,0,45,4,1,0.6001338,60.00099602
4,236,161,2,2,8.5,0,-8.5,0,0,0,1,1,0.5000275,60.00099602
4,237,4100,1,2,-8.5,0,-8.5,0,1,0,2,1,0.5334501,60.00099602
4,238,100,2,1,-8.5,0,-8.5,0,1,0,2,1,0.466724,60.00099602
4,239,57,2,1,-8.5,0,8.5,0,0,45,3,1,0.4522141,60.00099602
4,240,115,2,1,-8.5,0,8.5,0,0,45,2,1,0.5834733,60.00099602
4,241,7,2,2,8.5,0,-8.5,0,0,45,2,1,0.5501045,60.00099602
4,242,150,2,1,-8.5,0,-8.5,0,1,45,3,1,0.5009952,60.00099602
4,243,18,2,1,8.5,0,8.5,0,1,45,4,1,0.5500333,60.00099602
4,244,28,2,1,-8.5,0,-8.5,0,1,45,1,1,0.5333686,60.00099602
4,245,63,2,1,8.5,0,-8.5,0,0,45,1,1,0.5334208,60.00099602
4,246,77,2,2,8.5,0,8.5,0,1,45,2,1,0.6000838,60.00099602
4,247,69,2,1,-8.5,0,-8.5,0,1,0,4,1,0.6167581,60.00099602
4,248,57,2,2,8.5,0,-8.5,0,0,0,4,1,0.566753,60.00099602
4,249,75,2,2,-8.5,0,-8.5,0,1,45,3,1,0.61674,60.00099602
4,250,162,2,1,-8.5,0,-8.5,0,1,45,2,1,0.5667408,60.00099602
4,251,98,2,2,-8.5,0,8.5,0,0,0,4,1,0.6001335,60.00099602
4,252,116,2,2,-8.5,0,-8.5,0,1,45,1,1,0.5334213,60.00099602
4,253,2600,1,1,-8.5,0,8.5,0,0,0,2,1,0.5167177,60.00099602
4,254,150,2,2,8.5,0,-8.5,0,0,45,2,1,0.5000658,60.00099602
4,255,36,2,1,-8.5,0,8.5,0,0,45,4,1,0.5167213,60.00099602
4,256,20,2,2,8.5,0,-8.5,0,0,45,3,1,0.5500126,60.00099602
4,257,12100,1,1,-8.5,0,-8.5,0,1,45,3,1,0.4334643,60.00099602
4,258,18,2,2,-8.5,0,8.5,0,0,45,2,1,0.5178984,60.00099602
4,259,12800,1,2,8.5,0,8.5,0,1,45,2,1,0.4667841,60.00099602
4,260,158,2,1,8.5,0,8.5,0,1,0,4,1,0.5167849,60.00099602
4,261,58,2,1,-8.5,0,-8.5,0,1,0,4,1,0.5333927,60.00099602
4,262,93,2,2,8.5,0,-8.5,0,0,0,4,1,0.5001083,60.00099602
4,263,4,2,2,8.5,0,-8.5,0,0,45,3,1,0.6333805,60.00099602
4,264,42,2,2,8.5,0,8.5,0,1,0,2,1,0.6856075,60.00099602
4,265,16,2,2,8.5,0,-8.5,0,0,0,1,1,0.6185751,60.00099602
4,266,27,2,2,-8.5,0,-8.5,0,1,45,2,1,0.5666832,60.00099602
4,267,84,2,1,-8.5,0,8.5,0,0,0,1,1,0.7000735,60.00099602
4,268,47,2,2,8.5,0,8.5,0,1,45,4,1,0.5999613,60.00099602
4,269,36,2,2,8.5,0,8.5,0,1,0,1,1,0.566802,60.00099602
4,270,63,2,1,8.5,0,8.5,0,1,0,2,1,0.5667062,60.00099602
4,271,131,2,1,-8.5,0,-8.5,0,1,0,3,1,0.6001281,60.00099602
4,272,161,2,2,8.5,0,8.5,0,1,45,2,1,0.4667956,60.00099602
4,273,87,2,2,-8.5,0,-8.5,0,1,45,1,1,0.6001296,60.00099602
4,274,122,2,1,-8.5,0,-8.5,0,1,45,1,1,0.5166768,60.00099602
4,275,106,2,2,8.5,0,8.5,0,1,0,1,1,0.484341,60.00099602
4,276,129,2,2,-8.5,0,-8.5,0,1,0,1,1,0.4834343,60.00099602
4,277,17200,1,1,-8.5,0,8.5,0,0,0,2,1,0.5833637,60.00099602
4,278,28,2,2,8.5,0,-8.5,0,0,0,4,1,0.6333368,60.00099602
4,279,121,2,1,8.5,0,-8.5,0,0,0,1,1,0.6167926,60.00099602
4,280,106,2,1,-8.5,0,-8.5,0,1,45,4,1,0.6500359,60.00099602
4,281,134,2,2,-8.5,0,8.5,0,0,45,3,1,0.5336272,60.00099602
4,282,153,2,1,-8.5,0,8.5,0,0,0,1,1,0.4667113,60.00099602
4,283,73,2,2,8.5,0,8.5,0,1,0,2,1,0.41679,60.00099602
4,284,38,2,2,8.5,0,8.5,0,1,45,2,1,0.6334337,60.00099602
4,285,10,2,1,-8.5,0,-8.5,0,1,0,4,1,0.5500312,60.00099602
4,286,157,2,2,8.5,0,-8.5,0,0,45,3,1,0.6001381,60.00099602
4,287,35,2,1,-8.5,0,-8.5,0,1,0,3,1,0.5516659,60.00099602
4,288,36,2,1,-8.5,0,-8.5,0,1,45,2,1,0.5166852,60.00099602
4,289,14000,1,1,-8.5,0,8.5,0,0,45,2,1,0.5166995,60.00099602
4,290,5,2,2,-8.5,0,8.5,0,0,45,4,1,0.5000521,60.00099602
4,291,125,2,1,8.5,0,8.5,0,1,45,4,1,0.4833898,60.00099602
4,292,12100,1,1,-8.5,0,8.5,0,0,0,2,1,0.6667242,60.00099602
4,293,152,2,2,-8.5,0,8.5,0,0,45,4,1,0.500035,60.00099602
4,294,7,2,1,-8.5,0,-8.5,0,1,0,2,1,0.5333532,60.00099602
4,295,81,2,2,8.5,0,-8.5,0,0,45,1,1,0.4833827,60.00099602
4,296,142,2,1,-8.5,0,-8.5,0,1,0,2,1,0.4834048,60.00099602
4,297,37,2,1,8.5,0,-8.5,0,0,45,4,1,0.4845768,60.00099602
4,298,3,2,2,8.5,0,8.5,0,1,0,1,1,0.4000386,60.00099602
4,299,13100,1,1,-8.5,0,-8.5,0,1,45,1,1,0.4001385,60.00099602
4,300,62,2,2,8.5,0,-8.5,0,0,45,1,1,0.5666821,60.00099602
4,301,26,2,2,8.5,0,8.5,0,1,0,1,1,0.4001419,60.00099602
4,302,17,2,2,8.5,0,8.5,0,1,45,4,1,0.4667308,60.00099602
4,303,27,2,2,-8.5,0,8.5,0,0,0,3,1,0.6500156,60.00099602
4,304,12500,1,1,-8.5,0,8.5,0,0,45,4,1,0.5000981,60.00099602
4,305,2600,1,2,8.5,0,-8.5,0,0,45,3,1,0.6013096,60.00099602
4,306,138,2,2,8.5,0,8.5,0,1,0,3,1,0.4677508,60.00099602
4,307,96,2,1,-8.5,0,8.5,0,0,45,1,1,0.5167623,60.00099602
4,308,115,2,1,-8.5,0,-8.5,0,1,0,1,1,0.5169645,60.00099602
4,309,2,2,2,-8.5,0,8.5,0,0,0,1,1,0.6001352,60.00099602
4,310,33,2,2,-8.5,0,-8.5,0,1,45,4,1,0.5667757,60.00099602
4,311,58,2,1,-8.5,0,8.5,0,0,45,3,1,0.5501086,60.00099602
4,312,10100,1,2,8.5,0,8.5,0,1,0,2,1,0.533458,60.00099602
4,313,162,2,2,8.5,0,8.5,0,1,0,1,1,0.5001358,60.00099602
4,314,16,2,1,-8.5,0,-8.5,0,1,0,2,1,0.5001114,60.00099602
4,315,61,2,1,-8.5,0,-8.5,0,1,45,4,1,0.4847421,60.00099602
4,316,91,2,1,-8.5,0,-8.5,0,1,0,1,1,0.5334055,60.00099602
4,317,33,2,2,-8.5,0,8.5,0,0,45,3,1,0.4833815,60.00099602
4,318,9200,1,1,-8.5,0,8.5,0,0,0,4,1,0.6334138,60.00099602
4,319,153,2,1,-8.5,0,-8.5,0,1,45,3,1,0.5333407,60.00099602
4,320,116,2,1,8.5,0,8.5,0,1,45,4,1,0.5526108,60.00099602
4,321,32,2,1,-8.5,0,-8.5,0,1,0,1,1,0.5833783,60.00099602
4,322,36,2,2,8.5,0,-8.5,0,0,0,2,1,0.6000682,60.00099602
4,323,120,2,1,-8.5,0,8.5,0,0,0,3,1,0.5833844,60.00099602
4,324,121,2,1,8.5,0,8.5,0,1,45,4,1,0.4667077,60.00099602
4,325,113,2,2,8.5,0,-8.5,0,0,45,3,1,0.5500339,60.00099602
4,326,66,2,2,8.5,0,8.5,0,1,0,1,1,0.4333712,60.00099602
4,327,96,2,2,8.5,0,8.5,0,1,0,2,1,0.4500576,60.00099602
4,328,95,2,1,-8.5,0,8.5,0,0,45,3,1,0.5167217,60.00099602
4,329,9,2,1,8.5,0,8.5,0,1,45,3,1,0.5666235,60.00099602
4,330,48,2,1,-8.5,0,8.5,0,0,45,3,1,0.5334597,60.00099602
4,331,87,2,1,8.5,0,-8.5,0,0,0,3,1,0.5833946,60.00099602
4,332,52,2,1,-8.5,0,8.5,0,0,0,2,1,0.5668006,60.00099602
4,333,6300,1,2,8.5,0,8.5,0,1,0,3,1,0.4500541,60.00099602
4,334,143,2,1,-8.5,0,-8.5,0,1,0,4,1,0.5004529,60.00099602
4,335,58,2,2,8.5,0,-8.5,0,0,45,2,1,0.5000411,60.00099602
4,336,162,2,1,-8.5,0,8.5,0,0,45,1,1,0.5333624,60.00099602
4,337,47,2,2,8.5,0,-8.5,0,0,45,4,1,0.5666821,60.00099602
4,338,9200,1,2,8.5,0,-8.5,0,0,0,4,1,0.5834115,60.00099602
4,339,132,2,2,8.5,0,8.5,0,1,0,1,1,0.5167767,60.00099602
4,340,25,2,2,8.5,0,-8.5,0,0,45,4,1,0.4833828,60.00099602
4,341,17200,1,2,8.5,0,8.5,0,1,45,1,1,0.4677051,60.00099602
4,342,93,2,1,-8.5,0,8.5,0,0,45,4,1,0.5167898,60.00099602
4,343,157,2,2,8.5,0,8.5,0,1,0,3,1,0.4335695,60.00099602
4,344,35,2,2,8.5,0,-8.5,0,0,0,3,1,0.483356,60.00099602
4,345,10400,1,1,-8.5,0,-8.5,0,1,45,3,1,0.5166663,60.00099602
4,346,41,2,1,8.5,0,-8.5,0,0,45,4,1,0.6500346,60.00099602
4,347,62,2,1,-8.5,0,8.5,0,0,0,2,1,0.4501338,60.00099602
4,348,55,2,2,8.5,0,8.5,0,1,0,4,1,0.4501077,60.00099602
4,349,125,2,2,-8.5,0,-8.5,0,1,45,2,1,0.5833815,60.00099602
4,350,12800,1,1,-8.5,0,8.5,0,0,45,3,0,0.4000273,60.00099602
4,351,120,2,1,-8.5,0,-8.5,0,1,45,2,1,0.5666425,60.00099602
4,352,10,2,1,-8.5,0,8.5,0,0,45,3,1,0.5166235,60.00099602
4,353,41,2,1,8.5,0,8.5,0,1,0,4,1,0.5333879,60.00099602
4,354,3300,1,2,8.5,0,-8.5,0,0,45,3,1,0.4833581,60.00099602
4,355,43,2,1,-8.5,0,8.5,0,0,45,1,1,0.5167349,60.00099602
4,356,17300,1,1,-8.5,0,8.5,0,0,0,1,1,0.500013,60.00099602
4,357,71,2,1,8.5,0,-8.5,0,0,45,1,1,0.4833162,60.00099602
4,358,96,2,2,8.5,0,-8.5,0,0,0,2,1,0.5000526,60.00099602
4,359,152,2,1,8.5,0,8.5,0,1,0,2,1,0.4667092,60.00099602
4,360,1200,1,1,-8.5,0,8.5,0,0,45,4,1,0.4833391,60.00099602
4,361,12300,1,1,8.5,0,-8.5,0,0,45,3,1,0.5834263,60.00099602
4,362,55,2,2,8.5,0,-8.5,0,0,45,2,1,0.5001227,60.00099602
4,363,3100,1,2,8.5,0,-8.5,0,0,0,3,1,0.4834596,60.00099602
4,364,41,2,2,-8.5,0,8.5,0,0,0,4,1,0.5167253,60.00099602
4,365,111,2,1,8.5,0,8.5,0,1,0,3,1,0.5167163,60.00099602
4,366,20,2,1,-8.5,0,8.5,0,0,45,3,1,0.4833885,60.00099602
4,367,69,2,2,8.5,0,8.5,0,1,45,1,1,0.466797,60.00099602
4,368,45,2,1,8.5,0,8.5,0,1,45,4,1,0.4834023,60.00099602
4,369,76,2,2,8.5,0,-8.5,0,0,0,4,1,0.583351,60.00099602
4,370,10300,1,1,8.5,0,8.5,0,1,0,4,1,0.5667924,60.00099602
4,371,10,2,2,8.5,0,-8.5,0,0,45,2,1,0.4334513,60.00099602
4,372,55,2,1,-8.5,0,8.5,0,0,0,2,1,0.4167328,60.00099602
4,373,22,2,2,8.5,0,8.5,0,1,0,2,1,0.4667505,60.00099602
4,374,13200,1,1,-8.5,0,8.5,0,0,45,4,1,0.4352204,60.00099602
4,375,3,2,1,-8.5,0,-8.5,0,1,0,1,1,0.4667451,60.00099602
4,376,42,2,1,-8.5,0,-8.5,0,1,0,1,1,0.4500328,60.00099602
4,377,14000,1,1,-8.5,0,-8.5,0,1,0,1,1,0.3999923,60.00099602
4,378,13000,1,1,8.5,0,-8.5,0,0,45,4,1,0.6014615,60.00099602
4,379,84,2,2,8.5,0,-8.5,0,0,0,2,1,0.4667041,60.00099602
4,380,17300,1,2,8.5,0,8.5,0,1,0,2,1,0.4834128,60.00099602
4,381,10400,1,1,-8.5,0,8.5,0,0,0,2,1,0.5167608,60.00099602
4,382,69,2,2,8.5,0,-8.5,0,0,45,2,1,0.5500023,60.00099602
4,383,108,2,2,-8.5,0,-8.5,0,1,45,4,1,0.4667928,60.00099602
4,384,91,2,1,-8.5,0,8.5,0,0,45,2,1,0.601434,60.00099602
4,385,37,2,1,8.5,0,8.5,0,1,45,3,1,0.5000833,60.00099602
4,386,40,2,1,-8.5,0,-8.5,0,1,0,1,1,0.5000891,60.00099602
4,387,10300,1,1,8.5,0,-8.5,0,0,45,4,1,0.5166528,60.00099602
4,388,43,2,2,8.5,0,8.5,0,1,0,3,1,0.4343769,60.00099602
4,389,73,2,1,-8.5,0,8.5,0,0,0,1,1,0.5341119,60.00099602
4,390,14100,1,1,-8.5,0,8.5,0,0,0,1,1,0.5000355,60.00099602
4,391,109,2,2,8.5,0,-8.5,0,0,45,2,1,0.5000311,60.00099602
4,392,124,2,1,-8.5,0,-8.5,0,1,0,4,1,0.4500698,60.00099602
4,393,5,2,1,8.5,0,-8.5,0,0,45,3,1,0.5000289,60.00099602
4,394,1,2,2,8.5,0,8.5,0,1,0,1,1,0.4000657,60.00099602
4,395,80,2,2,8.5,0,8.5,0,1,0,3,1,0.433382,60.00099602
4,396,14300,1,1,8.5,0,8.5,0,1,0,2,1,0.4682283,60.00099602
4,397,2200,1,1,-8.5,0,8.5,0,0,45,3,1,0.5500226,60.00099602
4,398,127,2,2,8.5,0,-8.5,0,0,0,1,1,0.4668058,60.00099602
4,399,110,2,2,8.5,0,-8.5,0,0,0,4,1,0.5001035,60.00099602
4,400,13,2,2,-8.5,0,-8.5,0,1,45,4,1,0.5001344,60.00099602
4,401,115,2,2,8.5,0,8.5,0,1,0,1,1,0.4333771,60.00099602
4,402,13,2,2,-8.5,0,8.5,0,0,45,1,1,0.5000726,60.00099602
4,403,22,2,1,-8.5,0,-8.5,0,1,45,4,1,0.5001364,60.00099602
4,404,70,2,1,-8.5,0,8.5,0,0,0,2,1,0.4834565,60.00099602
4,405,42,2,2,8.5,0,-8.5,0,0,45,2,1,0.3668084,60.00099602
4,406,35,2,2,8.5,0,8.5,0,1,0,3,1,0.3667989,60.00099602
4,407,146,2,1,-8.5,0,8.5,0,0,45,2,1,0.4334748,60.00099602
4,408,101,2,1,-8.5,0,-8.5,0,1,0,4,1,0.3833922,60.00099602
4,409,30,2,1,8.5,0,8.5,0,1,0,2,1,0.4167609,60.00099602
4,410,146,2,1,-8.5,0,-8.5,0,1,0,1,1,0.7334654,60.00099602
4,411,35,2,1,-8.5,0,8.5,0,0,0,1,1,0.5000448,60.00099602
4,412,100,2,1,-8.5,0,8.5,0,0,0,3,1,0.5000541,60.00099602
4,413,10500,1,1,-8.5,0,8.5,0,0,45,4,1,0.4499606,60.00099602
4,414,158,2,2,-8.5,0,-8.5,0,1,45,1,1,0.5167673,60.00099602
4,415,38,2,2,8.5,0,-8.5,0,0,0,3,1,0.4833518,60.00099602
4,416,56,2,1,8.5,0,8.5,0,1,45,2,1,0.5166453,60.00099602
4,417,81,2,1,-8.5,0,-8.5,0,1,0,2,1,0.4333317,60.00099602
4,418,62,2,1,-8.5,0,-8.5,0,1,0,4,1,0.4691192,60.00099602
4,419,80,2,1,-8.5,0,8.5,0,0,0,3,1,0.6333848,60.00099602
4,420,2600,1,2,8.5,0,8.5,0,1,45,4,1,0.3833666,60.00099602
4,421,23,2,1,8.5,0,8.5,0,1,0,2,1,0.5000507,60.00099602
4,422,56,2,2,-8.5,0,-8.5,0,1,0,1,1,0.5166248,60.00099602
4,423,131,2,2,8.5,0,8.5,0,1,45,2,1,0.5833975,60.00099602
4,424,23,2,2,-8.5,0,-8.5,0,1,45,3,1,0.5332666,60.00099602
4,425,105,2,1,8.5,0,8.5,0,1,0,1,1,0.3334652,60.00099602
4,426,141,2,2,-8.5,0,8.5,0,0,0,1,1,0.4499703,60.00099602
4,427,80,2,1,-8.5,0,-8.5,0,1,45,4,1,0.4167995,60.00099602
4,428,11700,1,2,8.5,0,8.5,0,1,45,3,1,0.5333807,60.00099602
4,429,122,2,2,8.5,0,-8.5,0,0,45,2,1,0.6334099,60.00099602
4,430,5,2,2,-8.5,0,-8.5,0,1,0,1,1,0.4666886,60.00099602
4,431,60,2,2,-8.5,0,-8.5,0,1,45,1,1,0.6167875,60.00099602
4,432,28,2,2,8.5,0,8.5,0,1,45,4,1,0.516788,60.00099602
4,433,158,2,2,-8.5,0,8.5,0,0,0,2,1,0.4667215,60.00099602
4,434,73,2,1,-8.5,0,-8.5,0,1,0,3,1,0.5501372,60.00099602
4,435,13000,1,2,-8.5,0,-8.5,0,1,0,1,1,0.7167432,60.00099602
4,436,4100,1,2,-8.5,0,8.5,0,0,0,2,1,0.5500351,60.00099602
4,437,52,2,1,-8.5,0,-8.5,0,1,0,3,1,0.4834649,60.00099602
4,438,25,2,1,-8.5,0,-8.5,0,1,0,1,1,0.5833831,60.00099602
4,439,106,2,1,-8.5,0,8.5,0,0,45,2,1,0.516682,60.00099602
4,440,83,2,2,-8.5,0,-8.5,0,1,45,1,1,0.6346536,60.00099602
4,441,28,2,1,-8.5,0,8.5,0,0,0,3,1,0.550133,60.00099602
4,442,75,2,1,8.5,0,8.5,0,1,0,2,1,0.4834471,60.00099602
4,443,12800,1,1,-8.5,0,-8.5,0,1,0,1,1,0.4833498,60.00099602
4,444,132,2,2,8.5,0,-8.5,0,0,45,2,1,0.5167675,60.00099602
4,445,68,2,2,-8.5,0,-8.5,0,1,45,1,1,0.5167503,60.00099602
4,446,9,2,2,-8.5,0,-8.5,0,1,0,1,1,0.533414,60.00099602
4,447,144,2,1,8.5,0,-8.5,0,0,45,4,1,0.5667541,60.00099602
4,448,55,2,1,-8.5,0,-8.5,0,1,45,4,1,0.5000178,60.00099602
4,449,14100,1,2,8.5,0,8.5,0,1,0,1,1,0.4166452,60.00099602
4,450,29,2,1,-8.5,0,-8.5,0,1,0,3,1,0.4667133,60.00099602
4,451,94,2,1,8.5,0,-8.5,0,0,45,2,1,0.5666409,60.00099602
4,452,161,2,1,-8.5,0,-8.5,0,1,45,1,1,0.733336,60.00099602
4,453,6900,1,1,8.5,0,-8.5,0,0,0,2,1,0.5501003,60.00099602
4,454,117,2,2,8.5,0,8.5,0,1,45,3,1,0.6333994,60.00099602
4,455,30,2,2,-8.5,0,8.5,0,0,0,4,1,0.6667704,60.00099602
4,456,29,2,2,8.5,0,-8.5,0,0,45,3,1,0.4500491,60.00099602
4,457,152,2,2,-8.5,0,-8.5,0,1,45,3,1,0.6501321,60.00099602
4,458,45,2,1,8.5,0,-8.5,0,0,0,1,1,0.4844195,60.00099602
4,459,12300,1,1,8.5,0,8.5,0,1,0,1,1,0.616762,60.00099602
4,460,153,2,2,8.5,0,-8.5,0,0,45,2,1,0.6667781,60.00099602
4,461,108,2,2,-8.5,0,8.5,0,0,45,4,1,21.7162154,60.00099602
4,462,23,2,1,8.5,0,-8.5,0,0,0,3,1,0.6011173,60.00099602
4,463,1200,1,1,-8.5,0,-8.5,0,1,45,1,1,0.4334593,60.00099602
4,464,75,2,2,-8.5,0,8.5,0,0,0,2,1,0.4667815,60.00099602
4,465,146,2,2,8.5,0,8.5,0,1,45,4,1,0.4666141,60.00099602
4,466,132,2,1,-8.5,0,8.5,0,0,45,4,1,0.5667605,60.00099602
4,467,79,2,2,-8.5,0,-8.5,0,1,45,3,1,0.5167476,60.00099602
4,468,11700,1,1,-8.5,0,8.5,0,0,45,3,1,0.5667666,60.00099602
4,469,11,2,2,8.5,0,8.5,0,1,45,1,1,0.5833837,60.00099602
4,470,25,2,1,-8.5,0,8.5,0,0,0,2,1,0.4334706,60.00099602
4,471,4,2,1,-8.5,0,-8.5,0,1,45,4,1,0.4666468,60.00099602
4,472,100,2,2,8.5,0,8.5,0,1,45,4,1,0.4833996,60.00099602
4,473,72,2,1,-8.5,0,-8.5,0,1,45,1,1,0.483406,60.00099602
4,474,4100,1,1,8.5,0,8.5,0,1,45,1,1,0.4333444,60.00099602
4,475,81,2,2,8.5,0,8.5,0,1,45,3,1,0.5000972,60.00099602
4,476,8,2,2,8.5,0,8.5,0,1,0,2,1,0.4834563,60.00099602
4,477,16,2,2,8.5,0,8.5,0,1,45,4,1,0.5166552,60.00099602
4,478,3,2,1,-8.5,0,8.5,0,0,0,2,1,0.6001272,60.00099602
4,479,71,2,1,8.5,0,8.5,0,1,0,3,1,0.4667849,60.00099602
4,480,16,2,1,-8.5,0,8.5,0,0,45,1,1,0.5167083,60.00099602
4,481,23,2,2,-8.5,0,8.5,0,0,45,3,1,0.566779,60.00099602
4,482,2200,1,2,8.5,0,-8.5,0,0,0,4,1,0.5834025,60.00099602
4,483,11,2,1,-8.5,0,-8.5,0,1,0,3,1,0.4501337,60.00099602
4,484,13000,1,2,-8.5,0,8.5,0,0,45,3,1,0.5333155,60.00099602
4,485,94,2,2,-8.5,0,-8.5,0,1,45,1,1,0.6333606,60.00099602
4,486,13200,1,2,8.5,0,8.5,0,1,45,4,1,0.5000369,60.00099602
4,487,109,2,1,-8.5,0,8.5,0,0,45,1,1,0.4667922,60.00099602
4,488,107,2,2,8.5,0,8.5,0,1,0,1,1,0.5000421,60.00099602
4,489,14300,1,2,-8.5,0,8.5,0,0,45,1,1,0.5339654,60.00099602
4,490,17,2,1,-8.5,0,-8.5,0,1,45,1,1,0.4834758,60.00099602
4,491,2900,1,2,-8.5,0,-8.5,0,1,0,1,1,0.416726,60.00099602
4,492,76,2,1,-8.5,0,8.5,0,0,0,4,1,0.4500219,60.00099602
4,493,109,2,2,8.5,0,8.5,0,1,0,2,1,0.5500845,60.00099602
4,494,61,2,1,-8.5,0,8.5,0,0,45,4,1,0.5833394,60.00099602
4,495,91,2,2,8.5,0,8.5,0,1,45,4,1,0.4001446,60.00099602
4,496,17,2,2,8.5,0,-8.5,0,0,0,3,1,0.4667438,60.00099602
4,497,49,2,1,8.5,0,-8.5,0,0,0,1,1,0.5667002,60.00099602
4,498,72,2,2,8.5,0,8.5,0,1,0,4,1,0.4167406,60.00099602
4,499,33,2,1,8.5,0,-8.5,0,0,45,3,1,0.3667148,60.00099602
4,500,87,2,1,8.5,0,8.5,0,1,0,4,1,0.3168004,60.00099602
4,501,11700,1,1,-8.5,0,-8.5,0,1,45,4,1,0.3500144,60.00099602
4,502,101,2,1,-8.5,0,8.5,0,0,0,1,1,0.4001379,60.00099602
4,503,2200,1,2,8.5,0,8.5,0,1,0,3,1,0.4000423,60.00099602
4,504,117,2,1,-8.5,0,8.5,0,0,45,4,1,0.4833743,60.00099602
4,505,110,2,2,8.5,0,8.5,0,1,45,1,1,0.5168051,60.00099602
4,506,68,2,1,8.5,0,-8.5,0,0,0,2,1,0.4168014,60.00099602
4,507,27,2,1,8.5,0,-8.5,0,0,45,1,1,0.4834491,60.00099602
4,508,12800,1,2,8.5,0,-8.5,0,0,0,3,1,0.4000557,60.00099602
4,509,13,2,1,8.5,0,-8.5,0,0,0,3,1,0.4500876,60.00099602
4,510,136,2,2,8.5,0,-8.5,0,0,45,2,1,0.4168024,60.00099602
4,511,9,2,2,-8.5,0,8.5,0,0,45,2,1,0.5518615,60.00099602
4,512,71,2,2,-8.5,0,8.5,0,0,0,2,1,0.3834379,60.00099602
4,513,66,2,1,-8.5,0,-8.5,0,1,45,1,1,0.3833786,60.00099602
4,514,18,2,2,-8.5,0,-8.5,0,1,45,2,1,0.5333778,60.00099602
4,515,8,2,2,8.5,0,-8.5,0,0,0,2,1,0.5001356,60.00099602
4,516,2,2,2,-8.5,0,-8.5,0,1,0,1,1,0.4667985,60.00099602
4,517,32,2,2,8.5,0,-8.5,0,0,45,1,1,0.5168029,60.00099602
4,518,157,2,1,-8.5,0,8.5,0,0,45,4,1,0.4500567,60.00099602
4,519,141,2,2,-8.5,0,-8.5,0,1,0,1,1,0.4667644,60.00099602
4,520,7,2,1,-8.5,0,8.5,0,0,0,3,1,0.4001037,60.00099602
4,521,138,2,1,-8.5,0,8.5,0,0,0,2,1,0.483441,60.00099602
4,522,12300,1,2,-8.5,0,8.5,0,0,45,2,1,0.5333691,60.00099602
4,523,83,2,1,8.5,0,8.5,0,1,45,2,1,0.4333653,60.00099602
4,524,63,2,2,-8.5,0,-8.5,0,1,0,2,1,0.3677336,60.00099602
4,525,111,2,1,8.5,0,-8.5,0,0,45,1,1,0.5166553,60.00099602
4,526,94,2,2,-8.5,0,8.5,0,0,0,3,1,0.7167467,60.00099602
4,527,4,2,1,-8.5,0,8.5,0,0,0,2,1,0.4667693,60.00099602
4,528,2100,1,2,-8.5,0,-8.5,0,1,45,3,1,0.4500316,60.00099602
4,529,13200,1,2,8.5,0,-8.5,0,0,45,4,1,0.500138,60.00099602
4,530,141,2,1,8.5,0,8.5,0,1,0,2,1,0.3834365,60.00099602
4,531,70,2,2,8.5,0,-8.5,0,0,0,1,1,0.5834534,60.00099602
4,532,26,2,1,-8.5,0,8.5,0,0,0,2,1,0.5500018,60.00099602
4,533,105,2,2,-8.5,0,8.5,0,0,45,4,1,0.4999184,60.00099602
4,534,11,2,1,-8.5,0,8.5,0,0,45,1,1,0.5499455,60.00099602
4,535,45,2,2,-8.5,0,8.5,0,0,0,1,1,0.4334156,60.00099602
4,536,68,2,2,-8.5,0,8.5,0,0,45,3,1,0.4501379,60.00099602
4,537,37,2,2,-8.5,0,-8.5,0,1,45,1,1,0.4500121,60.00099602
4,538,49,2,1,8.5,0,8.5,0,1,0,1,1,0.4666371,60.00099602
4,539,12500,1,1,-8.5,0,-8.5,0,1,0,4,1,0.433433,60.00099602
4,540,91,2,2,8.5,0,-8.5,0,0,0,1,1,0.5000583,60.00099602
4,541,1800,1,2,8.5,0,8.5,0,1,45,4,1,0.4675276,60.00099602
4,542,22,2,2,8.5,0,-8.5,0,0,45,1,1,0.6000374,60.00099602
4,543,10300,1,2,-8.5,0,-8.5,0,1,0,2,1,0.6001065,60.00099602
4,544,13800,1,2,-8.5,0,-8.5,0,1,0,2,1,0.483371,60.00099602
4,545,33,2,1,8.5,0,8.5,0,1,45,4,1,0.3834039,60.00099602
4,546,116,2,1,8.5,0,-8.5,0,0,45,1,1,0.7667145,60.00099602
4,547,49,2,2,-8.5,0,8.5,0,0,0,3,1,0.3351465,60.00099602
4,548,37,2,2,-8.5,0,8.5,0,0,0,2,1,0.566715,60.00099602
4,549,127,2,1,-8.5,0,-8.5,0,1,45,2,1,0.416728,60.00099602
4,550,2100,1,2,-8.5,0,8.5,0,0,45,3,0,0.3667096,60.00099602
4,551,95,2,2,8.5,0,8.5,0,1,45,4,1,0.5022192,60.00099602
4,552,30,2,1,8.5,0,-8.5,0,0,45,2,1,0.5000476,60.00099602
4,553,127,2,2,8.5,0,8.5,0,1,0,2,1,0.4667085,60.00099602
4,554,47,2,1,-8.5,0,8.5,0,0,45,3,1,0.5334961,60.00099602
4,555,6900,1,2,-8.5,0,-8.5,0,1,45,1,1,0.4334146,60.00099602
4,556,129,2,2,-8.5,0,8.5,0,0,45,3,1,0.483438,60.00099602
4,557,31,2,2,8.5,0,8.5,0,1,45,3,1,0.4000259,60.00099602
4,558,61,2,2,8.5,0,8.5,0,1,0,1,1,0.4667256,60.00099602
4,559,131,2,2,8.5,0,-8.5,0,0,45,3,1,0.4847422,60.00099602
4,560,10500,1,2,8.5,0,-8.5,0,0,45,4,1,0.4166839,60.00099602
4,561,6900,1,2,-8.5,0,8.5,0,0,45,4,1,0.5334073,60.00099602
4,562,13000,1,1,8.5,0,8.5,0,1,0,4,1,0.3833891,60.00099602
4,563,86,2,2,8.5,0,-8.5,0,0,45,3,1,0.5000232,60.00099602
4,564,6800,1,1,-8.5,0,-8.5,0,1,0,4,1,0.5500511,60.00099602
4,565,98,2,1,8.5,0,-8.5,0,0,45,1,1,0.4000502,60.00099602
4,566,10500,1,2,8.5,0,8.5,0,1,0,3,1,0.4333928,60.00099602
4,567,17200,1,2,8.5,0,-8.5,0,0,0,1,1,0.5667877,60.00099602
5,0,11,2,1,-8.5,0,-8.5,0,1,45,2,1,1.4833602,60.01266267
5,1,153,2,1,8.5,0,8.5,0,1,45,4,1,1.0167524,60.01266267
5,2,58,2,1,8.5,0,8.5,0,1,45,3,1,0.4843302,60.01266267
5,3,18,2,1,-8.5,0,-8.5,0,1,0,2,1,0.6834678,60.01266267
5,4,98,2,2,-8.5,0,-8.5,0,1,45,1,1,0.5500636,60.01266267
5,5,7,2,2,8.5,0,8.5,0,1,0,3,1,0.566785,60.01266267
5,6,20,2,2,-8.5,0,8.5,0,0,45,1,1,0.4833492,60.01266267
5,7,12800,1,2,-8.5,0,8.5,0,0,0,3,1,0.6166921,60.01266267
5,8,2,2,2,8.5,0,8.5,0,1,0,2,1,0.4167523,60.01266267
5,9,13,2,1,8.5,0,-8.5,0,0,45,3,1,0.5333002,60.01266267
5,10,23,2,2,-8.5,0,-8.5,0,1,45,3,1,0.5666355,60.01266267
5,11,45,2,2,-8.5,0,-8.5,0,1,45,4,1,0.5333429,60.01266267
5,12,105,2,2,8.5,0,8.5,0,1,0,2,1,0.5833586,60.01266267
5,13,157,2,1,-8.5,0,-8.5,0,1,0,3,1,0.4351546,60.01266267
5,14,25,2,2,8.5,0,8.5,0,1,45,2,1,0.5500226,60.01266267
5,15,7,2,1,-8.5,0,8.5,0,0,45,2,1,0.4334698,60.01266267
5,16,14100,1,2,-8.5,0,-8.5,0,1,45,2,1,0.4349952,60.01266267
5,17,116,2,2,-8.5,0,-8.5,0,1,0,1,1,0.4834162,60.01266267
5,18,69,2,1,8.5,0,8.5,0,1,45,4,1,0.5833521,60.01266267
5,19,94,2,1,-8.5,0,8.5,0,0,0,4,1,0.818683,60.01266267
5,20,105,2,1,-8.5,0,-8.5,0,1,45,2,1,0.5685198,60.01266267
5,21,65,2,2,8.5,0,8.5,0,1,45,1,1,0.5000169,60.01266267
5,22,14100,1,1,8.5,0,8.5,0,1,45,4,1,0.5333744,60.01266267
5,23,9200,1,1,-8.5,0,8.5,0,0,45,2,1,0.400108,60.01266267
5,24,20,2,1,8.5,0,-8.5,0,0,45,1,1,0.516693,60.01266267
5,25,13800,1,1,8.5,0,-8.5,0,0,45,2,1,0.3500451,60.01266267
5,26,17200,1,1,-8.5,0,-8.5,0,1,45,3,1,0.3333809,60.01266267
5,27,12100,1,2,-8.5,0,8.5,0,0,0,1,1,0.4680943,60.01266267
5,28,71,2,2,-8.5,0,8.5,0,0,45,3,1,0.4500413,60.01266267
5,29,129,2,1,-8.5,0,-8.5,0,1,0,4,1,0.4166997,60.01266267
5,30,138,2,2,-8.5,0,-8.5,0,1,0,3,1,0.5333135,60.01266267
5,31,14300,1,2,-8.5,0,-8.5,0,1,0,4,1,0.5166424,60.01266267
5,32,35,2,1,8.5,0,8.5,0,1,45,4,1,0.5166611,60.01266267
5,33,4100,1,1,8.5,0,-8.5,0,0,0,2,1,0.7500384,60.01266267
5,34,6300,1,2,8.5,0,8.5,0,1,45,1,1,0.5011056,60.01266267
5,35,158,2,2,-8.5,0,-8.5,0,1,0,1,1,0.3833753,60.01266267
